subjectID	scanner	order	block	run	trial	onsettime	ImageLeft	ImageRight	bidIndexLeft	bidIndexRight	IsleftGo	Response	PairType	Outcome	RT	bidLeft	bidRight	
BMI_bs_40_125	 4	 1	 02	 1	 1	 2.018418e+00	 DoritosGrill.bmp	 BisliGrill.bmp	 53	 43	 1	 i	 2	 0	 793.14	 0.93	 2.04	 
BMI_bs_40_125	 4	 1	 02	 1	 2	 5.005107e+00	 KinderBuenoBrown3.bmp	 ChocolateParaCookies5.bmp	 13	 8	 1	 i	 1	 0	 950.45	 4.96	 6.00	 
BMI_bs_40_125	 4	 1	 02	 1	 3	 1.001072e+01	 KifkefMaklot2.bmp	 KinderJoy.bmp	 10	 14	 1	 i	 1	 0	 856.84	 5.89	 4.91	 
BMI_bs_40_125	 4	 1	 02	 1	 4	 2.000526e+01	 Twist.bmp	 Smarties.bmp	 48	 50	 0	 i	 2	 1	 878.30	 1.13	 1.07	 
BMI_bs_40_125	 4	 1	 02	 1	 5	 2.501088e+01	 Mekupelet.bmp	 ClickBisquit2.bmp	 55	 6	 0	 i	 4	 1	 800.68	 0.53	 6.04	 
BMI_bs_40_125	 4	 1	 02	 1	 6	 3.101761e+01	 Shugi.bmp	 DoritosNatural.bmp	 45	 49	 1	 u	 2	 1	 849.95	 1.69	 1.11	 
BMI_bs_40_125	 4	 1	 02	 1	 7	 3.600656e+01	 HappyHippo.bmp	 BambaSweet.bmp	 54	 52	 0	 u	 2	 0	 901.00	 0.82	 0.96	 
BMI_bs_40_125	 4	 1	 02	 1	 8	 3.900992e+01	 DoritosSourSpicy.bmp	 CrunchShokoVanil.bmp	 47	 51	 1	 x	 2	 999	 999000.00	 1.18	 1.00	 
BMI_bs_40_125	 4	 1	 02	 1	 9	 4.201328e+01	 KifkefMaklot2.bmp	 BagaleShtuhim.bmp	 10	 17	 1	 u	 1	 1	 854.28	 5.89	 3.91	 
BMI_bs_40_125	 4	 1	 02	 1	 10	 4.802002e+01	 Bounty.bmp	 SkittlesSour4.bmp	 46	 44	 0	 i	 2	 1	 951.54	 1.36	 1.71	 
BMI_bs_40_125	 4	 1	 02	 1	 11	 5.200783e+01	 Bounty.bmp	 Shugi.bmp	 46	 45	 0	 x	 2	 999	 999000.00	 1.36	 1.69	 
BMI_bs_40_125	 4	 1	 02	 1	 12	 5.701344e+01	 KinderJoy.bmp	 ClickBalls5.bmp	 14	 15	 0	 i	 1	 1	 1286.13	 4.91	 4.89	 
BMI_bs_40_125	 4	 1	 02	 1	 13	 6.101793e+01	 CrunchShokoVanil.bmp	 Smarties.bmp	 51	 50	 0	 i	 2	 1	 921.63	 1.00	 1.07	 
BMI_bs_40_125	 4	 1	 02	 1	 14	 6.500573e+01	 CrunchBisquitWhite2.bmp	 Mekupelet.bmp	 5	 55	 1	 u	 4	 1	 749.83	 6.18	 0.53	 
BMI_bs_40_125	 4	 1	 02	 1	 15	 6.800910e+01	 ClickBalls5.bmp	 Cheetos.bmp	 15	 16	 1	 u	 1	 1	 1058.45	 4.89	 3.96	 
BMI_bs_40_125	 4	 1	 02	 1	 16	 7.101246e+01	 KinderBuenoBrown3.bmp	 Cheetos.bmp	 13	 16	 1	 u	 1	 1	 935.10	 4.96	 3.96	 
BMI_bs_40_125	 4	 1	 02	 1	 17	 8.300926e+01	 BisliGrill.bmp	 Smarties.bmp	 43	 50	 0	 i	 2	 1	 1194.29	 2.04	 1.07	 
BMI_bs_40_125	 4	 1	 02	 1	 18	 9.201935e+01	 Cheetos.bmp	 KinderBuenoWhite2.bmp	 16	 7	 0	 i	 1	 1	 688.21	 3.96	 6.02	 
BMI_bs_40_125	 4	 1	 02	 1	 19	 9.600717e+01	 SkittlesSour4.bmp	 BisliGrill.bmp	 44	 43	 1	 x	 2	 999	 999000.00	 1.71	 2.04	 
BMI_bs_40_125	 4	 1	 02	 1	 20	 1.020139e+02	 DoritosGrill.bmp	 DoritosNatural.bmp	 53	 49	 1	 x	 2	 999	 999000.00	 0.93	 1.11	 
BMI_bs_40_125	 4	 1	 02	 1	 21	 1.050173e+02	 ChocolateParaSucariotKoftzot2.bmp	 ClickBalls5.bmp	 9	 15	 0	 i	 1	 1	 954.31	 5.93	 4.89	 
BMI_bs_40_125	 4	 1	 02	 1	 22	 1.150118e+02	 DoritosGrill.bmp	 HappyHippo.bmp	 53	 54	 1	 i	 2	 0	 1095.76	 0.93	 0.82	 
BMI_bs_40_125	 4	 1	 02	 1	 23	 1.290108e+02	 ClickBalls5.bmp	 ChocolateParaCookies5.bmp	 15	 8	 1	 i	 1	 0	 680.71	 4.89	 6.00	 
BMI_bs_40_125	 4	 1	 02	 1	 24	 1.320142e+02	 KinderBuenoWhite2.bmp	 Twix.bmp	 7	 11	 1	 u	 1	 1	 605.38	 6.02	 5.00	 
BMI_bs_40_125	 4	 1	 02	 1	 25	 1.350176e+02	 Taami.bmp	 ChocolateParaSucariotKoftzot2.bmp	 12	 9	 1	 i	 1	 0	 809.98	 4.98	 5.93	 
BMI_bs_40_125	 4	 1	 02	 1	 26	 1.390054e+02	 Smarties.bmp	 HappyHippo.bmp	 50	 54	 1	 i	 2	 0	 1046.17	 1.07	 0.82	 
BMI_bs_40_125	 4	 1	 02	 1	 27	 1.430099e+02	 DoritosNatural.bmp	 BambaSweet.bmp	 49	 52	 0	 i	 2	 1	 929.69	 1.11	 0.96	 
BMI_bs_40_125	 4	 1	 02	 1	 28	 1.470144e+02	 DoritosGrill.bmp	 Twist.bmp	 53	 48	 1	 x	 2	 999	 999000.00	 0.93	 1.13	 
BMI_bs_40_125	 4	 1	 02	 1	 29	 1.500177e+02	 Taami.bmp	 KinderJoy.bmp	 12	 14	 1	 i	 1	 0	 1281.83	 4.98	 4.91	 
BMI_bs_40_125	 4	 1	 02	 1	 30	 1.560078e+02	 Taami.bmp	 BagaleShtuhim.bmp	 12	 17	 1	 u	 1	 1	 835.79	 4.98	 3.91	 
BMI_bs_40_125	 4	 1	 02	 1	 31	 1.600123e+02	 ChocolateParaSucariotKoftzot2.bmp	 Keifli.bmp	 9	 18	 0	 u	 1	 0	 855.29	 5.93	 3.84	 
BMI_bs_40_125	 4	 1	 02	 1	 32	 1.640168e+02	 Keifli.bmp	 Cheetos.bmp	 18	 16	 1	 x	 1	 999	 999000.00	 3.84	 3.96	 
BMI_bs_40_125	 4	 1	 02	 1	 33	 1.690057e+02	 BambaSweet.bmp	 Bounty.bmp	 52	 46	 1	 i	 2	 0	 1309.90	 0.96	 1.36	 
BMI_bs_40_125	 4	 1	 02	 1	 34	 1.730102e+02	 BambaSweet.bmp	 CrunchShokoVanil.bmp	 52	 51	 1	 x	 2	 999	 999000.00	 0.96	 1.00	 
BMI_bs_40_125	 4	 1	 02	 1	 35	 1.770147e+02	 BagaleShtuhim.bmp	 ClickBalls5.bmp	 17	 15	 0	 i	 1	 1	 676.89	 3.91	 4.89	 
BMI_bs_40_125	 4	 1	 02	 1	 36	 1.850070e+02	 Bounty.bmp	 DoritosGrill.bmp	 46	 53	 0	 u	 2	 0	 852.61	 1.36	 0.93	 
BMI_bs_40_125	 4	 1	 02	 1	 37	 1.910137e+02	 CrunchShokoVanil.bmp	 Shugi.bmp	 51	 45	 0	 i	 2	 1	 845.86	 1.00	 1.69	 
BMI_bs_40_125	 4	 1	 02	 1	 38	 1.970204e+02	 BagaleShtuhim.bmp	 Keifli.bmp	 17	 18	 0	 i	 1	 1	 863.15	 3.91	 3.84	 
BMI_bs_40_125	 4	 1	 02	 1	 39	 2.110195e+02	 DoritosNatural.bmp	 SkittlesSour4.bmp	 49	 44	 0	 i	 2	 1	 880.11	 1.11	 1.71	 
BMI_bs_40_125	 4	 1	 02	 1	 40	 2.170095e+02	 KinderBuenoWhite2.bmp	 ChocolateParaSucariotKoftzot2.bmp	 7	 9	 1	 u	 1	 1	 618.04	 6.02	 5.93	 
BMI_bs_40_125	 4	 1	 02	 1	 41	 2.200129e+02	 Twist.bmp	 SkittlesSour4.bmp	 48	 44	 0	 u	 2	 0	 1022.69	 1.13	 1.71	 
BMI_bs_40_125	 4	 1	 02	 1	 42	 2.230162e+02	 Twist.bmp	 BambaSweet.bmp	 48	 52	 0	 u	 2	 0	 923.32	 1.13	 0.96	 
BMI_bs_40_125	 4	 1	 02	 1	 43	 2.260196e+02	 Egozi.bmp	 ClickBisquit2.bmp	 56	 6	 0	 i	 4	 1	 1031.94	 0.36	 6.04	 
BMI_bs_40_125	 4	 1	 02	 1	 44	 2.290063e+02	 BagaleShtuhim.bmp	 KinderBuenoBrown3.bmp	 17	 13	 0	 i	 1	 1	 653.28	 3.91	 4.96	 
BMI_bs_40_125	 4	 1	 02	 1	 45	 2.340119e+02	 Cheetos.bmp	 Taami.bmp	 16	 12	 0	 i	 1	 1	 543.67	 3.96	 4.98	 
BMI_bs_40_125	 4	 1	 02	 1	 46	 2.390175e+02	 Shugi.bmp	 Twist.bmp	 45	 48	 1	 i	 2	 0	 1002.05	 1.69	 1.13	 
BMI_bs_40_125	 4	 1	 02	 1	 47	 2.440064e+02	 HappyHippo.bmp	 SkittlesSour4.bmp	 54	 44	 0	 u	 2	 0	 757.12	 0.82	 1.71	 
BMI_bs_40_125	 4	 1	 02	 1	 48	 2.550188e+02	 SkittlesSour4.bmp	 CrunchShokoVanil.bmp	 44	 51	 1	 u	 2	 1	 1072.75	 1.71	 1.00	 
BMI_bs_40_125	 4	 1	 02	 1	 49	 2.580055e+02	 Cheetos.bmp	 KifkefMaklot2.bmp	 16	 10	 0	 i	 1	 1	 726.14	 3.96	 5.89	 
BMI_bs_40_125	 4	 1	 02	 1	 50	 2.610088e+02	 Keifli.bmp	 Twix.bmp	 18	 11	 1	 u	 1	 1	 978.71	 3.84	 5.00	 
BMI_bs_40_125	 4	 1	 02	 1	 51	 2.660144e+02	 BisliGrill.bmp	 BambaSweet.bmp	 43	 52	 0	 u	 2	 0	 997.11	 2.04	 0.96	 
BMI_bs_40_125	 4	 1	 02	 1	 52	 2.710201e+02	 KinderBuenoBrown3.bmp	 ChocolateParaSucariotKoftzot2.bmp	 13	 9	 1	 i	 1	 0	 919.50	 4.96	 5.93	 
BMI_bs_40_125	 4	 1	 02	 1	 53	 2.740067e+02	 DoritosSourSpicy.bmp	 Bounty.bmp	 47	 46	 1	 i	 2	 0	 892.84	 1.18	 1.36	 
BMI_bs_40_125	 4	 1	 02	 1	 54	 2.790123e+02	 BisliGrill.bmp	 DoritosSourSpicy.bmp	 43	 47	 0	 u	 2	 0	 911.22	 2.04	 1.18	 
BMI_bs_40_125	 4	 1	 02	 1	 55	 2.840180e+02	 KinderBuenoWhite2.bmp	 ChocolateParaCookies5.bmp	 7	 8	 1	 i	 1	 0	 1049.60	 6.02	 6.00	 
BMI_bs_40_125	 4	 1	 02	 1	 56	 2.910091e+02	 Twix.bmp	 KifkefMaklot2.bmp	 11	 10	 0	 i	 1	 1	 626.45	 5.00	 5.89	 
BMI_bs_40_125	 4	 1	 02	 1	 57	 2.950136e+02	 DoritosSourSpicy.bmp	 Twist.bmp	 47	 48	 1	 i	 2	 0	 1205.94	 1.18	 1.13	 
BMI_bs_40_125	 4	 1	 02	 1	 58	 3.000192e+02	 Egozi.bmp	 CrunchBisquitWhite2.bmp	 56	 5	 0	 i	 4	 1	 648.33	 0.36	 6.18	 
BMI_bs_40_125	 4	 1	 02	 1	 59	 3.060093e+02	 BisliGrill.bmp	 Shugi.bmp	 43	 45	 0	 i	 2	 1	 1058.28	 2.04	 1.69	 
BMI_bs_40_125	 4	 1	 02	 1	 60	 3.090126e+02	 ChocolateParaCookies5.bmp	 KifkefMaklot2.bmp	 8	 10	 0	 u	 1	 0	 910.90	 6.00	 5.89	 
BMI_bs_40_125	 4	 1	 02	 1	 61	 3.130171e+02	 HappyHippo.bmp	 DoritosSourSpicy.bmp	 54	 47	 0	 u	 2	 0	 770.42	 0.82	 1.18	 
BMI_bs_40_125	 4	 1	 02	 1	 62	 3.160205e+02	 ClickBalls5.bmp	 Twix.bmp	 15	 11	 1	 u	 1	 1	 767.06	 4.89	 5.00	 
BMI_bs_40_125	 4	 1	 02	 1	 63	 3.220105e+02	 KinderBuenoWhite2.bmp	 BagaleShtuhim.bmp	 7	 17	 1	 u	 1	 1	 593.03	 6.02	 3.91	 
BMI_bs_40_125	 4	 1	 02	 1	 64	 3.250139e+02	 HappyHippo.bmp	 Shugi.bmp	 54	 45	 0	 u	 2	 0	 1317.64	 0.82	 1.69	 
BMI_bs_40_125	 4	 1	 02	 1	 65	 3.290184e+02	 Taami.bmp	 ChocolateParaCookies5.bmp	 12	 8	 1	 i	 1	 0	 545.16	 4.98	 6.00	 
BMI_bs_40_125	 4	 1	 02	 1	 66	 3.330062e+02	 KifkefMaklot2.bmp	 ChocolateParaSucariotKoftzot2.bmp	 10	 9	 1	 u	 1	 1	 829.36	 5.89	 5.93	 
BMI_bs_40_125	 4	 1	 02	 1	 67	 3.360096e+02	 DoritosSourSpicy.bmp	 DoritosNatural.bmp	 47	 49	 1	 x	 2	 999	 999000.00	 1.18	 1.11	 
BMI_bs_40_125	 4	 1	 02	 1	 68	 3.390129e+02	 Twix.bmp	 Taami.bmp	 11	 12	 0	 i	 1	 1	 822.61	 5.00	 4.98	 
BMI_bs_40_125	 4	 1	 02	 1	 69	 3.430174e+02	 Smarties.bmp	 Bounty.bmp	 50	 46	 1	 i	 2	 0	 1258.13	 1.07	 1.36	 
BMI_bs_40_125	 4	 1	 02	 1	 70	 3.460208e+02	 KinderJoy.bmp	 KinderBuenoBrown3.bmp	 14	 13	 0	 i	 1	 1	 1174.76	 4.91	 4.96	 
BMI_bs_40_125	 4	 1	 02	 1	 71	 3.520108e+02	 KinderJoy.bmp	 Keifli.bmp	 14	 18	 0	 u	 1	 0	 984.73	 4.91	 3.84	 
BMI_bs_40_125	 4	 1	 02	 1	 72	 3.550142e+02	 KinderJoy.bmp	 KinderBuenoWhite2.bmp	 14	 7	 0	 i	 1	 1	 781.35	 4.91	 6.02	 
BMI_bs_40_125	 4	 1	 02	 1	 73	 3.630065e+02	 Keifli.bmp	 ChocolateParaCookies5.bmp	 18	 8	 1	 i	 1	 0	 621.07	 3.84	 6.00	 
BMI_bs_40_125	 4	 1	 02	 1	 74	 3.680121e+02	 DoritosNatural.bmp	 Smarties.bmp	 49	 50	 0	 i	 2	 1	 951.46	 1.11	 1.07	 
BMI_bs_40_125	 4	 1	 02	 1	 75	 3.710155e+02	 KinderBuenoBrown3.bmp	 Twix.bmp	 13	 11	 1	 u	 1	 1	 1124.08	 4.96	 5.00	 
BMI_bs_40_125	 4	 1	 02	 1	 76	 3.780067e+02	 CrunchShokoVanil.bmp	 DoritosGrill.bmp	 51	 53	 0	 u	 2	 0	 692.91	 1.00	 0.93	 
