subjectID	scanner	order	block	run	trial	onsettime	ImageLeft	ImageRight	bidIndexLeft	bidIndexRight	IsleftGo	Response	PairType	Outcome	RT	bidLeft	bidRight	
bmem_snacks2_132	 0	 2	 03	 1	 1	 2.018582e+00	 BisliPizza3.bmp	 BagaleShtuhim.bmp	 7	 17	 0	 u	 1	 0	 1031.59	 9.11	 6.00	 
bmem_snacks2_132	 0	 2	 03	 1	 2	 5.021983e+00	 Shugi.bmp	 Cheetos.bmp	 47	 54	 0	 u	 2	 0	 988.21	 2.78	 2.69	 
bmem_snacks2_132	 0	 2	 03	 1	 3	 1.002760e+01	 DoritosNatural.bmp	 HappyHippo.bmp	 52	 46	 0	 i	 2	 1	 758.58	 2.73	 2.78	 
bmem_snacks2_132	 0	 2	 03	 1	 4	 1.303100e+01	 BisliPizza3.bmp	 ClickBalls5.bmp	 7	 11	 0	 u	 1	 0	 659.18	 9.11	 7.07	 
bmem_snacks2_132	 0	 2	 03	 1	 5	 1.601734e+01	 HappyHippo.bmp	 Mentos.bmp	 46	 50	 1	 i	 2	 0	 688.85	 2.78	 2.76	 
bmem_snacks2_132	 0	 2	 03	 1	 6	 2.102332e+01	 CrunchBisquitBrown3.bmp	 Tortit.bmp	 14	 15	 1	 u	 1	 1	 770.86	 7.02	 6.98	 
bmem_snacks2_132	 0	 2	 03	 1	 7	 2.502779e+01	 ClickXLbrown4.bmp	 Taami.bmp	 8	 10	 1	 i	 1	 0	 694.38	 9.04	 7.07	 
bmem_snacks2_132	 0	 2	 03	 1	 8	 3.003340e+01	 HispusimShatiah.bmp	 Shugi.bmp	 51	 47	 1	 u	 2	 1	 592.77	 2.76	 2.78	 
bmem_snacks2_132	 0	 2	 03	 1	 9	 3.602340e+01	 Cheetos.bmp	 DoritosNatural.bmp	 54	 52	 1	 u	 2	 1	 874.78	 2.69	 2.73	 
bmem_snacks2_132	 0	 2	 03	 1	 10	 4.102907e+01	 Bamba.bmp	 Mentos.bmp	 49	 50	 1	 i	 2	 0	 629.10	 2.78	 2.76	 
bmem_snacks2_132	 0	 2	 03	 1	 11	 4.902131e+01	 Kitkat.bmp	 ClickXLbrown4.bmp	 13	 8	 0	 i	 1	 1	 772.87	 7.04	 9.04	 
bmem_snacks2_132	 0	 2	 03	 1	 12	 5.302585e+01	 SkittlesSour4.bmp	 Bamba.bmp	 53	 49	 0	 u	 2	 0	 896.32	 2.73	 2.78	 
bmem_snacks2_132	 0	 2	 03	 1	 13	 5.703036e+01	 KifkefMaklot2.bmp	 CrunchBisquitBrown3.bmp	 18	 14	 0	 i	 1	 1	 843.82	 5.96	 7.02	 
bmem_snacks2_132	 0	 2	 03	 1	 14	 6.402153e+01	 Bounty.bmp	 Mekupelet.bmp	 48	 44	 1	 i	 2	 0	 1060.65	 2.78	 2.82	 
bmem_snacks2_132	 0	 2	 03	 1	 15	 6.702483e+01	 ClickBalls5.bmp	 KifkefMaklot2.bmp	 11	 18	 1	 i	 1	 0	 1241.36	 7.07	 5.96	 
bmem_snacks2_132	 0	 2	 03	 1	 16	 7.002823e+01	 Kitkat.bmp	 ChocolateParaSucariotKoftzot2.bmp	 13	 9	 0	 u	 1	 0	 1213.95	 7.04	 8.93	 
bmem_snacks2_132	 0	 2	 03	 1	 17	 8.102385e+01	 DoritosNatural.bmp	 Bamba.bmp	 52	 49	 0	 i	 2	 1	 938.33	 2.73	 2.78	 
bmem_snacks2_132	 0	 2	 03	 1	 18	 9.302062e+01	 ChocolateParaSucariotKoftzot2.bmp	 BisliPizza3.bmp	 9	 7	 1	 u	 1	 1	 877.57	 8.93	 9.11	 
bmem_snacks2_132	 0	 2	 03	 1	 19	 9.802629e+01	 SkittlesFruits2.bmp	 BisliOnion.bmp	 56	 5	 0	 u	 3	 0	 1111.89	 2.62	 9.18	 
bmem_snacks2_132	 0	 2	 03	 1	 20	 1.010297e+02	 BagaleShtuhim.bmp	 KifkefMaklot2.bmp	 17	 18	 1	 i	 1	 0	 940.52	 6.00	 5.96	 
bmem_snacks2_132	 0	 2	 03	 1	 21	 1.080208e+02	 HispusimShatiah.bmp	 Snickers.bmp	 51	 45	 1	 u	 2	 1	 1285.41	 2.76	 2.80	 
bmem_snacks2_132	 0	 2	 03	 1	 22	 1.130264e+02	 BagaleShtuhim.bmp	 Kitkat.bmp	 17	 13	 1	 i	 1	 0	 735.75	 6.00	 7.04	 
bmem_snacks2_132	 0	 2	 03	 1	 23	 1.160298e+02	 BagaleShtuhim.bmp	 Tortit.bmp	 17	 15	 1	 u	 1	 1	 1132.38	 6.00	 6.98	 
bmem_snacks2_132	 0	 2	 03	 1	 24	 1.230210e+02	 KinderJoy.bmp	 Apropo.bmp	 21	 22	 1	 u	 4	 1	 701.18	 4.91	 4.91	 
bmem_snacks2_132	 0	 2	 03	 1	 25	 1.270254e+02	 KashitSour.bmp	 Smarties.bmp	 41	 42	 1	 u	 5	 1	 1176.81	 3.11	 2.84	 
bmem_snacks2_132	 0	 2	 03	 1	 26	 1.300288e+02	 KifkefMaklot2.bmp	 Twix.bmp	 18	 16	 0	 i	 1	 1	 1157.39	 5.96	 6.00	 
bmem_snacks2_132	 0	 2	 03	 1	 27	 1.340333e+02	 BisliPizza3.bmp	 Twix.bmp	 7	 16	 0	 u	 1	 0	 1128.89	 9.11	 6.00	 
bmem_snacks2_132	 0	 2	 03	 1	 28	 1.400233e+02	 Twix.bmp	 ClickBisquit2.bmp	 16	 12	 1	 i	 1	 0	 1122.85	 6.00	 7.04	 
bmem_snacks2_132	 0	 2	 03	 1	 29	 1.430267e+02	 Twix.bmp	 Taami.bmp	 16	 10	 1	 i	 1	 0	 735.47	 6.00	 7.07	 
bmem_snacks2_132	 0	 2	 03	 1	 30	 1.500179e+02	 HispusimShatiah.bmp	 Mekupelet.bmp	 51	 44	 1	 i	 2	 0	 728.29	 2.76	 2.82	 
bmem_snacks2_132	 0	 2	 03	 1	 31	 1.640167e+02	 ClickBisquit2.bmp	 ClickXLbrown4.bmp	 12	 8	 0	 u	 1	 0	 673.43	 7.04	 9.04	 
bmem_snacks2_132	 0	 2	 03	 1	 32	 1.680214e+02	 PesekZman.bmp	 ClickBlackWhite3.bmp	 20	 19	 1	 u	 4	 1	 772.77	 5.87	 5.89	 
bmem_snacks2_132	 0	 2	 03	 1	 33	 1.810193e+02	 Twix.bmp	 Kitkat.bmp	 16	 13	 1	 u	 1	 1	 710.90	 6.00	 7.04	 
bmem_snacks2_132	 0	 2	 03	 1	 34	 1.870260e+02	 Egozi.bmp	 DoritosNatural.bmp	 43	 52	 1	 u	 2	 1	 688.15	 2.82	 2.73	 
bmem_snacks2_132	 0	 2	 03	 1	 35	 1.900294e+02	 Tortit.bmp	 ClickBalls5.bmp	 15	 11	 0	 i	 1	 1	 1196.78	 6.98	 7.07	 
bmem_snacks2_132	 0	 2	 03	 1	 36	 1.950183e+02	 Egozi.bmp	 Snickers.bmp	 43	 45	 1	 i	 2	 0	 1047.90	 2.82	 2.80	 
bmem_snacks2_132	 0	 2	 03	 1	 37	 1.980217e+02	 CrunchBisquitBrown3.bmp	 ClickBisquit2.bmp	 14	 12	 1	 u	 1	 1	 852.49	 7.02	 7.04	 
bmem_snacks2_132	 0	 2	 03	 1	 38	 2.030273e+02	 Mentos.bmp	 HispusimShatiah.bmp	 50	 51	 0	 u	 2	 0	 686.93	 2.76	 2.76	 
bmem_snacks2_132	 0	 2	 03	 1	 39	 2.120207e+02	 BisliPizza3.bmp	 ClickXLbrown4.bmp	 7	 8	 0	 i	 1	 1	 709.51	 9.11	 9.04	 
bmem_snacks2_132	 0	 2	 03	 1	 40	 2.160252e+02	 Kitkat.bmp	 CrunchBisquitBrown3.bmp	 13	 14	 0	 i	 1	 1	 672.98	 7.04	 7.02	 
bmem_snacks2_132	 0	 2	 03	 1	 41	 2.220319e+02	 ChocolateParaSucariotKoftzot2.bmp	 Tortit.bmp	 9	 15	 1	 u	 1	 1	 994.31	 8.93	 6.98	 
bmem_snacks2_132	 0	 2	 03	 1	 42	 2.250185e+02	 Mentos.bmp	 Cheetos.bmp	 50	 54	 0	 u	 2	 0	 935.64	 2.76	 2.69	 
bmem_snacks2_132	 0	 2	 03	 1	 43	 2.310253e+02	 Snickers.bmp	 Cheetos.bmp	 45	 54	 0	 x	 2	 999	 999000.00	 2.80	 2.69	 
bmem_snacks2_132	 0	 2	 03	 1	 44	 2.350297e+02	 Bounty.bmp	 SkittlesSour4.bmp	 48	 53	 1	 u	 2	 1	 588.47	 2.78	 2.73	 
bmem_snacks2_132	 0	 2	 03	 1	 45	 2.410199e+02	 Egozi.bmp	 Mentos.bmp	 43	 50	 1	 i	 2	 0	 638.26	 2.82	 2.76	 
bmem_snacks2_132	 0	 2	 03	 1	 46	 2.440231e+02	 Bamba.bmp	 Snickers.bmp	 49	 45	 1	 i	 2	 0	 923.08	 2.78	 2.80	 
bmem_snacks2_132	 0	 2	 03	 1	 47	 2.470266e+02	 Mekupelet.bmp	 Bamba.bmp	 44	 49	 0	 i	 2	 1	 711.58	 2.82	 2.78	 
bmem_snacks2_132	 0	 2	 03	 1	 48	 2.510310e+02	 ChocolateParaSucariotKoftzot2.bmp	 KifkefMaklot2.bmp	 9	 18	 1	 u	 1	 1	 963.13	 8.93	 5.96	 
bmem_snacks2_132	 0	 2	 03	 1	 49	 2.590233e+02	 DoritosNatural.bmp	 Bounty.bmp	 52	 48	 0	 i	 2	 1	 674.88	 2.73	 2.78	 
bmem_snacks2_132	 0	 2	 03	 1	 50	 2.630279e+02	 Egozi.bmp	 SkittlesSour4.bmp	 43	 53	 1	 i	 2	 0	 830.28	 2.82	 2.73	 
bmem_snacks2_132	 0	 2	 03	 1	 51	 2.660312e+02	 Taami.bmp	 ChocolateParaSucariotKoftzot2.bmp	 10	 9	 0	 u	 1	 0	 1067.00	 7.07	 8.93	 
bmem_snacks2_132	 0	 2	 03	 1	 52	 2.690180e+02	 Mentos.bmp	 Bounty.bmp	 50	 48	 0	 u	 2	 0	 1080.23	 2.76	 2.78	 
bmem_snacks2_132	 0	 2	 03	 1	 53	 2.750245e+02	 GumiWine2.bmp	 ClickXLwhite4.bmp	 55	 6	 0	 i	 3	 1	 697.67	 2.67	 9.16	 
bmem_snacks2_132	 0	 2	 03	 1	 54	 2.790291e+02	 SkittlesFruits2.bmp	 ClickXLwhite4.bmp	 56	 6	 0	 i	 3	 1	 733.13	 2.62	 9.16	 
bmem_snacks2_132	 0	 2	 03	 1	 55	 2.820324e+02	 Twix.bmp	 Tortit.bmp	 16	 15	 1	 u	 1	 1	 1073.78	 6.00	 6.98	 
bmem_snacks2_132	 0	 2	 03	 1	 56	 2.870213e+02	 Taami.bmp	 CrunchBisquitBrown3.bmp	 10	 14	 0	 i	 1	 1	 756.86	 7.07	 7.02	 
bmem_snacks2_132	 0	 2	 03	 1	 57	 2.910258e+02	 KifkefMaklot2.bmp	 ClickXLbrown4.bmp	 18	 8	 0	 i	 1	 1	 1128.40	 5.96	 9.04	 
bmem_snacks2_132	 0	 2	 03	 1	 58	 3.000193e+02	 HappyHippo.bmp	 Shugi.bmp	 46	 47	 1	 u	 2	 1	 798.91	 2.78	 2.78	 
bmem_snacks2_132	 0	 2	 03	 1	 59	 3.050248e+02	 Cheetos.bmp	 SkittlesSour4.bmp	 54	 53	 1	 u	 2	 1	 1081.36	 2.69	 2.73	 
bmem_snacks2_132	 0	 2	 03	 1	 60	 3.080282e+02	 PesekZman.bmp	 ClickBlackWhite3.bmp	 20	 19	 1	 u	 4	 1	 821.94	 5.87	 5.89	 
bmem_snacks2_132	 0	 2	 03	 1	 61	 3.130169e+02	 HispusimShatiah.bmp	 SkittlesSour4.bmp	 51	 53	 1	 u	 2	 1	 753.23	 2.76	 2.73	 
bmem_snacks2_132	 0	 2	 03	 1	 62	 3.210261e+02	 Cheetos.bmp	 Mekupelet.bmp	 54	 44	 1	 i	 2	 0	 872.10	 2.69	 2.82	 
bmem_snacks2_132	 0	 2	 03	 1	 63	 3.240291e+02	 CrunchBisquitBrown3.bmp	 BisliPizza3.bmp	 14	 7	 1	 u	 1	 1	 685.07	 7.02	 9.11	 
bmem_snacks2_132	 0	 2	 03	 1	 64	 3.270328e+02	 CrunchShokoVanil.bmp	 KinderBuenoWhite2.bmp	 40	 39	 1	 i	 5	 0	 1393.33	 3.31	 3.73	 
bmem_snacks2_132	 0	 2	 03	 1	 65	 3.300195e+02	 Kitkat.bmp	 ClickBalls5.bmp	 13	 11	 0	 i	 1	 1	 886.71	 7.04	 7.07	 
bmem_snacks2_132	 0	 2	 03	 1	 66	 3.350251e+02	 Mekupelet.bmp	 Egozi.bmp	 44	 43	 0	 u	 2	 0	 985.11	 2.82	 2.82	 
bmem_snacks2_132	 0	 2	 03	 1	 67	 3.400308e+02	 SkittlesSour4.bmp	 HappyHippo.bmp	 53	 46	 0	 i	 2	 1	 659.40	 2.73	 2.78	 
bmem_snacks2_132	 0	 2	 03	 1	 68	 3.430171e+02	 Shugi.bmp	 Egozi.bmp	 47	 43	 0	 i	 2	 1	 1081.10	 2.78	 2.82	 
bmem_snacks2_132	 0	 2	 03	 1	 69	 3.490241e+02	 Snickers.bmp	 Bounty.bmp	 45	 48	 0	 i	 2	 1	 754.05	 2.80	 2.78	 
bmem_snacks2_132	 0	 2	 03	 1	 70	 3.530286e+02	 Apropo.bmp	 KinderJoy.bmp	 22	 21	 0	 i	 4	 1	 733.59	 4.91	 4.91	 
bmem_snacks2_132	 0	 2	 03	 1	 71	 3.560319e+02	 ClickBisquit2.bmp	 ChocolateParaSucariotKoftzot2.bmp	 12	 9	 0	 u	 1	 0	 1258.22	 7.04	 8.93	 
bmem_snacks2_132	 0	 2	 03	 1	 72	 3.670276e+02	 KinderBuenoWhite2.bmp	 CrunchShokoVanil.bmp	 39	 40	 0	 u	 5	 0	 798.56	 3.73	 3.31	 
bmem_snacks2_132	 0	 2	 03	 1	 73	 3.730177e+02	 Taami.bmp	 ClickBalls5.bmp	 10	 11	 0	 u	 1	 0	 800.42	 7.07	 7.07	 
bmem_snacks2_132	 0	 2	 03	 1	 74	 3.780232e+02	 Taami.bmp	 BagaleShtuhim.bmp	 10	 17	 0	 u	 1	 0	 674.95	 7.07	 6.00	 
bmem_snacks2_132	 0	 2	 03	 1	 75	 3.810267e+02	 ClickBisquit2.bmp	 BagaleShtuhim.bmp	 12	 17	 0	 u	 1	 0	 719.51	 7.04	 6.00	 
bmem_snacks2_132	 0	 2	 03	 1	 76	 3.850312e+02	 KashitSour.bmp	 Smarties.bmp	 41	 42	 1	 u	 5	 1	 819.00	 3.11	 2.84	 
bmem_snacks2_132	 0	 2	 03	 1	 77	 3.910212e+02	 Tortit.bmp	 ClickXLbrown4.bmp	 15	 8	 0	 i	 1	 1	 1117.02	 6.98	 9.04	 
bmem_snacks2_132	 0	 2	 03	 1	 78	 3.950257e+02	 ClickBalls5.bmp	 ClickBisquit2.bmp	 11	 12	 1	 i	 1	 0	 640.44	 7.07	 7.04	 
bmem_snacks2_132	 0	 2	 03	 1	 79	 3.980290e+02	 DoritosNatural.bmp	 HispusimShatiah.bmp	 52	 51	 0	 i	 2	 1	 1005.18	 2.73	 2.76	 
bmem_snacks2_132	 0	 2	 03	 1	 80	 4.010323e+02	 Bounty.bmp	 Shugi.bmp	 48	 47	 1	 u	 2	 1	 1025.84	 2.78	 2.78	 
bmem_snacks2_132	 0	 2	 03	 1	 81	 4.050202e+02	 Bamba.bmp	 Shugi.bmp	 49	 47	 1	 i	 2	 0	 717.98	 2.78	 2.78	 
bmem_snacks2_132	 0	 2	 03	 1	 82	 4.110269e+02	 Snickers.bmp	 HappyHippo.bmp	 45	 46	 0	 i	 2	 1	 623.26	 2.80	 2.78	 
bmem_snacks2_132	 0	 2	 03	 1	 83	 4.140304e+02	 Mekupelet.bmp	 HappyHippo.bmp	 44	 46	 0	 x	 2	 999	 999000.00	 2.82	 2.78	 
bmem_snacks2_132	 0	 2	 03	 1	 84	 4.180182e+02	 BisliOnion.bmp	 GumiWine2.bmp	 5	 55	 1	 u	 3	 1	 800.02	 9.18	 2.67	 
