subjectID	scanner	order	block	run	trial	onsettime	ImageLeft	ImageRight	bidIndexLeft	bidIndexRight	IsleftGo	Response	PairType	Outcome	RT	bidLeft	bidRight	
bmem_snacks2_109	 0	 1	 03	 1	 1	 2.035586e+00	 Mars.bmp	 BambaNugat.bmp	 17	 18	 0	 i	 1	 1	 1009.29	 4.64	 4.51	 
bmem_snacks2_109	 0	 1	 03	 1	 2	 8.042265e+00	 Bamba.bmp	 Mekupelet.bmp	 51	 45	 0	 i	 2	 1	 826.62	 1.96	 2.60	 
bmem_snacks2_109	 0	 1	 03	 1	 3	 1.104565e+01	 ClickXLbrown4.bmp	 WerthersOriginal.bmp	 15	 16	 1	 u	 1	 1	 735.21	 4.73	 4.64	 
bmem_snacks2_109	 0	 1	 03	 1	 4	 1.803689e+01	 Mars.bmp	 Shugi.bmp	 17	 10	 0	 i	 1	 1	 1103.98	 4.64	 5.00	 
bmem_snacks2_109	 0	 1	 03	 1	 5	 2.104026e+01	 Tortit.bmp	 Bamba.bmp	 50	 51	 1	 i	 2	 0	 1132.63	 2.16	 1.96	 
bmem_snacks2_109	 0	 1	 03	 1	 6	 2.604584e+01	 WerthersOriginal.bmp	 ChocolateParaCookies5.bmp	 16	 7	 0	 i	 1	 1	 727.04	 4.64	 5.98	 
bmem_snacks2_109	 0	 1	 03	 1	 7	 3.103474e+01	 BisliOnion.bmp	 Tortit.bmp	 48	 50	 0	 u	 2	 0	 1122.14	 2.36	 2.16	 
bmem_snacks2_109	 0	 1	 03	 1	 8	 3.403810e+01	 Kitkat.bmp	 BagaleShtuhim.bmp	 40	 39	 0	 u	 5	 0	 1022.79	 2.78	 2.87	 
bmem_snacks2_109	 0	 1	 03	 1	 9	 3.804271e+01	 ClickBalls5.bmp	 ChocolateParaCookies5.bmp	 8	 7	 0	 i	 1	 1	 714.18	 5.91	 5.98	 
bmem_snacks2_109	 0	 1	 03	 1	 10	 4.104603e+01	 SkittlesFruits2.bmp	 Taami.bmp	 46	 52	 0	 i	 2	 1	 990.85	 2.51	 1.87	 
bmem_snacks2_109	 0	 1	 03	 1	 11	 4.503379e+01	 ClickBisquit2.bmp	 ChocolateParaMarir2.bmp	 6	 55	 1	 u	 3	 1	 947.08	 6.16	 1.07	 
bmem_snacks2_109	 0	 1	 03	 1	 12	 5.003947e+01	 Mars.bmp	 Mentos.bmp	 17	 13	 0	 u	 1	 0	 1405.41	 4.64	 4.82	 
bmem_snacks2_109	 0	 1	 03	 1	 13	 5.304283e+01	 KashitSour.bmp	 BisliGrill.bmp	 43	 44	 0	 i	 2	 1	 1258.04	 2.71	 2.67	 
bmem_snacks2_109	 0	 1	 03	 1	 14	 5.604619e+01	 Mars.bmp	 ClickXLbrown4.bmp	 17	 15	 0	 i	 1	 1	 870.68	 4.64	 4.73	 
bmem_snacks2_109	 0	 1	 03	 1	 15	 6.103512e+01	 TapuchipsCrunch.bmp	 Popco.bmp	 19	 20	 1	 i	 4	 0	 1041.75	 4.38	 4.11	 
bmem_snacks2_109	 0	 1	 03	 1	 16	 6.904412e+01	 BisliOnion.bmp	 Halva2.bmp	 48	 47	 0	 u	 2	 0	 960.75	 2.36	 2.47	 
bmem_snacks2_109	 0	 1	 03	 1	 17	 7.403303e+01	 Keifli.bmp	 Twist.bmp	 21	 22	 0	 x	 4	 999	 999000.00	 4.00	 3.98	 
bmem_snacks2_109	 0	 1	 03	 1	 18	 8.204203e+01	 ClickBlackWhite3.bmp	 BambaNugat.bmp	 9	 18	 0	 u	 1	 0	 714.85	 5.80	 4.51	 
bmem_snacks2_109	 0	 1	 03	 1	 19	 8.602961e+01	 Mentos.bmp	 ClickBlackWhite3.bmp	 13	 9	 1	 i	 1	 0	 839.28	 4.82	 5.80	 
bmem_snacks2_109	 0	 1	 03	 1	 20	 8.903324e+01	 ClickBlackWhite3.bmp	 KinderJoy.bmp	 9	 12	 0	 u	 1	 0	 907.66	 5.80	 4.87	 
bmem_snacks2_109	 0	 1	 03	 1	 21	 9.203652e+01	 Halva2.bmp	 Tictac.bmp	 47	 54	 1	 i	 2	 0	 824.36	 2.47	 1.60	 
bmem_snacks2_109	 0	 1	 03	 1	 22	 9.503992e+01	 BabyDoll.bmp	 KashitSour.bmp	 53	 43	 1	 i	 2	 0	 1020.96	 1.62	 2.71	 
bmem_snacks2_109	 0	 1	 03	 1	 23	 9.904446e+01	 Taami.bmp	 BisliOnion.bmp	 52	 48	 1	 u	 2	 1	 1368.44	 1.87	 2.36	 
bmem_snacks2_109	 0	 1	 03	 1	 24	 1.030322e+02	 Bamba.bmp	 Halva2.bmp	 51	 47	 0	 u	 2	 0	 756.65	 1.96	 2.47	 
bmem_snacks2_109	 0	 1	 03	 1	 25	 1.090389e+02	 KinderJoy.bmp	 WerthersOriginal.bmp	 12	 16	 1	 u	 1	 1	 917.97	 4.87	 4.64	 
bmem_snacks2_109	 0	 1	 03	 1	 26	 1.190335e+02	 Tictac.bmp	 BisliGrill.bmp	 54	 44	 0	 i	 2	 1	 891.41	 1.60	 2.67	 
bmem_snacks2_109	 0	 1	 03	 1	 27	 1.220369e+02	 Mars.bmp	 ChocolateParaCookies5.bmp	 17	 7	 0	 i	 1	 1	 759.94	 4.64	 5.98	 
bmem_snacks2_109	 0	 1	 03	 1	 28	 1.270425e+02	 Mekupelet.bmp	 Tictac.bmp	 45	 54	 1	 u	 2	 1	 810.33	 2.60	 1.60	 
bmem_snacks2_109	 0	 1	 03	 1	 29	 1.360360e+02	 Kitkat.bmp	 BagaleShtuhim.bmp	 40	 39	 0	 u	 5	 0	 840.92	 2.78	 2.87	 
bmem_snacks2_109	 0	 1	 03	 1	 30	 1.450461e+02	 KifkefMaklot2.bmp	 BabyDoll.bmp	 49	 53	 0	 x	 2	 999	 999000.00	 2.31	 1.62	 
bmem_snacks2_109	 0	 1	 03	 1	 31	 1.490339e+02	 Mentos.bmp	 Snickers.bmp	 13	 14	 1	 i	 1	 0	 699.00	 4.82	 4.80	 
bmem_snacks2_109	 0	 1	 03	 1	 32	 1.570428e+02	 ClickXLbrown4.bmp	 ClickBalls5.bmp	 15	 8	 1	 u	 1	 1	 714.07	 4.73	 5.91	 
bmem_snacks2_109	 0	 1	 03	 1	 33	 1.640340e+02	 Snickers.bmp	 Shugi.bmp	 14	 10	 0	 i	 1	 1	 930.87	 4.80	 5.00	 
bmem_snacks2_109	 0	 1	 03	 1	 34	 1.670373e+02	 ClickBisquit2.bmp	 Smarties.bmp	 6	 56	 1	 u	 3	 1	 759.56	 6.16	 0.84	 
bmem_snacks2_109	 0	 1	 03	 1	 35	 1.700407e+02	 KifkefMaklot2.bmp	 Mekupelet.bmp	 49	 45	 0	 i	 2	 1	 748.19	 2.31	 2.60	 
bmem_snacks2_109	 0	 1	 03	 1	 36	 1.760305e+02	 ClickBlackWhite3.bmp	 Shugi.bmp	 9	 10	 0	 u	 1	 0	 702.35	 5.80	 5.00	 
bmem_snacks2_109	 0	 1	 03	 1	 37	 1.810364e+02	 ChocolateParaCookies5.bmp	 Snickers.bmp	 7	 14	 1	 u	 1	 1	 576.50	 5.98	 4.80	 
bmem_snacks2_109	 0	 1	 03	 1	 38	 1.850409e+02	 PesekZman.bmp	 Tapuchips.bmp	 41	 42	 0	 u	 5	 0	 1052.01	 2.78	 2.76	 
bmem_snacks2_109	 0	 1	 03	 1	 39	 1.900465e+02	 ClickBalls5.bmp	 BambaNugat.bmp	 8	 18	 0	 u	 1	 0	 766.34	 5.91	 4.51	 
bmem_snacks2_109	 0	 1	 03	 1	 40	 1.930332e+02	 BisliOnion.bmp	 BisliGrill.bmp	 48	 44	 0	 u	 2	 0	 1059.66	 2.36	 2.67	 
bmem_snacks2_109	 0	 1	 03	 1	 41	 1.960366e+02	 Mekupelet.bmp	 SkittlesFruits2.bmp	 45	 46	 1	 u	 2	 1	 680.26	 2.60	 2.51	 
bmem_snacks2_109	 0	 1	 03	 1	 42	 2.040455e+02	 Taami.bmp	 Tictac.bmp	 52	 54	 1	 u	 2	 1	 903.35	 1.87	 1.60	 
bmem_snacks2_109	 0	 1	 03	 1	 43	 2.090345e+02	 Tapuchips.bmp	 PesekZman.bmp	 42	 41	 1	 i	 5	 0	 890.35	 2.76	 2.78	 
bmem_snacks2_109	 0	 1	 03	 1	 44	 2.130389e+02	 KifkefMaklot2.bmp	 BisliGrill.bmp	 49	 44	 0	 x	 2	 999	 999000.00	 2.31	 2.67	 
bmem_snacks2_109	 0	 1	 03	 1	 45	 2.160424e+02	 Shugi.bmp	 ClickBalls5.bmp	 10	 8	 1	 u	 1	 1	 922.51	 5.00	 5.91	 
bmem_snacks2_109	 0	 1	 03	 1	 46	 2.190457e+02	 Tictac.bmp	 BabyDoll.bmp	 54	 53	 0	 i	 2	 1	 839.15	 1.60	 1.62	 
bmem_snacks2_109	 0	 1	 03	 1	 47	 2.230336e+02	 KashitSour.bmp	 Tortit.bmp	 43	 50	 0	 u	 2	 0	 963.27	 2.71	 2.16	 
bmem_snacks2_109	 0	 1	 03	 1	 48	 2.260368e+02	 Snickers.bmp	 BambaNugat.bmp	 14	 18	 0	 i	 1	 1	 920.05	 4.80	 4.51	 
bmem_snacks2_109	 0	 1	 03	 1	 49	 2.310425e+02	 Mentos.bmp	 WerthersOriginal.bmp	 13	 16	 1	 u	 1	 1	 802.35	 4.82	 4.64	 
bmem_snacks2_109	 0	 1	 03	 1	 50	 2.340459e+02	 Halva2.bmp	 KashitSour.bmp	 47	 43	 1	 i	 2	 0	 622.96	 2.47	 2.71	 
bmem_snacks2_109	 0	 1	 03	 1	 51	 2.370326e+02	 Bamba.bmp	 Taami.bmp	 51	 52	 0	 u	 2	 0	 868.22	 1.96	 1.87	 
bmem_snacks2_109	 0	 1	 03	 1	 52	 2.410371e+02	 Snickers.bmp	 ClickXLbrown4.bmp	 14	 15	 0	 i	 1	 1	 727.80	 4.80	 4.73	 
bmem_snacks2_109	 0	 1	 03	 1	 53	 2.440404e+02	 Cheetos.bmp	 KinderJoy.bmp	 11	 12	 0	 u	 1	 0	 1116.50	 4.98	 4.87	 
bmem_snacks2_109	 0	 1	 03	 1	 54	 2.470437e+02	 Halva2.bmp	 KifkefMaklot2.bmp	 47	 49	 1	 i	 2	 0	 553.15	 2.47	 2.31	 
bmem_snacks2_109	 0	 1	 03	 1	 55	 2.510316e+02	 BisliOnion.bmp	 Mekupelet.bmp	 48	 45	 0	 u	 2	 0	 1045.26	 2.36	 2.60	 
bmem_snacks2_109	 0	 1	 03	 1	 56	 2.640462e+02	 Halva2.bmp	 SkittlesFruits2.bmp	 47	 46	 1	 i	 2	 0	 790.68	 2.47	 2.51	 
bmem_snacks2_109	 0	 1	 03	 1	 57	 2.680340e+02	 ClickXLbrown4.bmp	 ClickBlackWhite3.bmp	 15	 9	 1	 i	 1	 0	 1066.94	 4.73	 5.80	 
bmem_snacks2_109	 0	 1	 03	 1	 58	 2.720385e+02	 ClickXLbrown4.bmp	 Cheetos.bmp	 15	 11	 1	 x	 1	 999	 999000.00	 4.73	 4.98	 
bmem_snacks2_109	 0	 1	 03	 1	 59	 2.760430e+02	 ClickBlackWhite3.bmp	 ChocolateParaCookies5.bmp	 9	 7	 0	 i	 1	 1	 625.91	 5.80	 5.98	 
bmem_snacks2_109	 0	 1	 03	 1	 60	 2.850364e+02	 ClickXLwhite4.bmp	 Smarties.bmp	 5	 56	 1	 u	 3	 1	 736.45	 6.47	 0.84	 
bmem_snacks2_109	 0	 1	 03	 1	 61	 2.890409e+02	 Shugi.bmp	 Cheetos.bmp	 10	 11	 1	 i	 1	 0	 1147.96	 5.00	 4.98	 
bmem_snacks2_109	 0	 1	 03	 1	 62	 2.920443e+02	 BisliGrill.bmp	 Bamba.bmp	 44	 51	 1	 u	 2	 1	 1208.62	 2.67	 1.96	 
bmem_snacks2_109	 0	 1	 03	 1	 63	 2.960321e+02	 Bamba.bmp	 BabyDoll.bmp	 51	 53	 0	 u	 2	 0	 868.80	 1.96	 1.62	 
bmem_snacks2_109	 0	 1	 03	 1	 64	 3.010377e+02	 Mars.bmp	 KinderJoy.bmp	 17	 12	 0	 i	 1	 1	 767.16	 4.64	 4.87	 
bmem_snacks2_109	 0	 1	 03	 1	 65	 3.060434e+02	 Snickers.bmp	 KinderJoy.bmp	 14	 12	 0	 i	 1	 1	 689.53	 4.80	 4.87	 
bmem_snacks2_109	 0	 1	 03	 1	 66	 3.140357e+02	 Shugi.bmp	 WerthersOriginal.bmp	 10	 16	 1	 u	 1	 1	 681.22	 5.00	 4.64	 
bmem_snacks2_109	 0	 1	 03	 1	 67	 3.170390e+02	 Mentos.bmp	 Cheetos.bmp	 13	 11	 1	 i	 1	 0	 749.90	 4.82	 4.98	 
bmem_snacks2_109	 0	 1	 03	 1	 68	 3.200424e+02	 TapuchipsCrunch.bmp	 Popco.bmp	 19	 20	 1	 i	 4	 0	 1082.49	 4.38	 4.11	 
bmem_snacks2_109	 0	 1	 03	 1	 69	 3.280346e+02	 BambaNugat.bmp	 Cheetos.bmp	 18	 11	 1	 u	 1	 1	 650.26	 4.51	 4.98	 
bmem_snacks2_109	 0	 1	 03	 1	 70	 3.310380e+02	 KifkefMaklot2.bmp	 Taami.bmp	 49	 52	 0	 i	 2	 1	 558.93	 2.31	 1.87	 
bmem_snacks2_109	 0	 1	 03	 1	 71	 3.440360e+02	 Tortit.bmp	 SkittlesFruits2.bmp	 50	 46	 1	 i	 2	 0	 680.91	 2.16	 2.51	 
bmem_snacks2_109	 0	 1	 03	 1	 72	 3.510438e+02	 BisliGrill.bmp	 SkittlesFruits2.bmp	 44	 46	 1	 u	 2	 1	 841.04	 2.67	 2.51	 
bmem_snacks2_109	 0	 1	 03	 1	 73	 3.560327e+02	 Mekupelet.bmp	 KashitSour.bmp	 45	 43	 1	 u	 2	 1	 668.17	 2.60	 2.71	 
bmem_snacks2_109	 0	 1	 03	 1	 74	 3.600373e+02	 Mentos.bmp	 ClickBalls5.bmp	 13	 8	 1	 i	 1	 0	 615.62	 4.82	 5.91	 
bmem_snacks2_109	 0	 1	 03	 1	 75	 3.640417e+02	 BambaNugat.bmp	 WerthersOriginal.bmp	 18	 16	 1	 u	 1	 1	 803.14	 4.51	 4.64	 
bmem_snacks2_109	 0	 1	 03	 1	 76	 3.710329e+02	 KifkefMaklot2.bmp	 Tortit.bmp	 49	 50	 0	 u	 2	 0	 884.01	 2.31	 2.16	 
bmem_snacks2_109	 0	 1	 03	 1	 77	 3.780407e+02	 BisliOnion.bmp	 BabyDoll.bmp	 48	 53	 0	 u	 2	 0	 636.20	 2.36	 1.62	 
bmem_snacks2_109	 0	 1	 03	 1	 78	 3.820453e+02	 KinderJoy.bmp	 ClickBalls5.bmp	 12	 8	 1	 i	 1	 0	 799.61	 4.87	 5.91	 
bmem_snacks2_109	 0	 1	 03	 1	 79	 3.860330e+02	 ClickXLwhite4.bmp	 ChocolateParaMarir2.bmp	 5	 55	 1	 u	 3	 1	 691.86	 6.47	 1.07	 
bmem_snacks2_109	 0	 1	 03	 1	 80	 3.950432e+02	 Tictac.bmp	 Tortit.bmp	 54	 50	 0	 u	 2	 0	 881.73	 1.60	 2.16	 
bmem_snacks2_109	 0	 1	 03	 1	 81	 3.990307e+02	 ChocolateParaCookies5.bmp	 Cheetos.bmp	 7	 11	 1	 u	 1	 1	 710.22	 5.98	 4.98	 
bmem_snacks2_109	 0	 1	 03	 1	 82	 4.090422e+02	 Taami.bmp	 KashitSour.bmp	 52	 43	 1	 x	 2	 999	 999000.00	 1.87	 2.71	 
bmem_snacks2_109	 0	 1	 03	 1	 83	 4.130467e+02	 BabyDoll.bmp	 SkittlesFruits2.bmp	 53	 46	 1	 i	 2	 0	 710.16	 1.62	 2.51	 
bmem_snacks2_109	 0	 1	 03	 1	 84	 4.180356e+02	 Twist.bmp	 Keifli.bmp	 22	 21	 1	 u	 4	 1	 905.33	 3.98	 4.00	 
