subjectID	scanner	order	block	run	trial	onsettime	ImageLeft	ImageRight	bidIndexLeft	bidIndexRight	IsleftGo	Response	PairType	Outcome	RT	bidLeft	bidRight	
bmem_snacks2_119	 0	 1	 01	 1	 1	 2.035354e+00	 Halva2.bmp	 Tapuchips.bmp	 9	 13	 0	 u	 1	 0	 1228.45	 6.42	 6.07	 
bmem_snacks2_119	 0	 1	 01	 1	 2	 5.038726e+00	 GumiSnakes3.bmp	 KashitSour.bmp	 46	 47	 0	 i	 2	 1	 1241.06	 4.04	 4.02	 
bmem_snacks2_119	 0	 1	 01	 1	 3	 1.004437e+01	 WerthersOriginal.bmp	 Halva2.bmp	 15	 9	 1	 x	 1	 999	 999000.00	 5.98	 6.42	 
bmem_snacks2_119	 0	 1	 01	 1	 4	 1.303111e+01	 Twix.bmp	 CrunchShokoVanil.bmp	 21	 22	 0	 x	 4	 999	 999000.00	 5.49	 5.24	 
bmem_snacks2_119	 0	 1	 01	 1	 5	 1.603446e+01	 Bamba.bmp	 KashitSour.bmp	 51	 47	 0	 u	 2	 0	 773.32	 3.87	 4.02	 
bmem_snacks2_119	 0	 1	 01	 1	 6	 2.104011e+01	 BisliOnion.bmp	 SkittlesFruits2.bmp	 49	 45	 0	 i	 2	 1	 879.70	 3.89	 4.11	 
bmem_snacks2_119	 0	 1	 01	 1	 7	 2.504457e+01	 GumiWine2.bmp	 KinderBuenoBrown3.bmp	 56	 6	 0	 i	 3	 1	 851.24	 3.76	 7.33	 
bmem_snacks2_119	 0	 1	 01	 1	 8	 3.003347e+01	 ChocolateParaCookies5.bmp	 ClickXLbrown4.bmp	 17	 12	 0	 i	 1	 1	 926.37	 5.71	 6.11	 
bmem_snacks2_119	 0	 1	 01	 1	 9	 3.604036e+01	 Bamba.bmp	 Smarties.bmp	 51	 44	 0	 u	 2	 0	 655.45	 3.87	 4.31	 
bmem_snacks2_119	 0	 1	 01	 1	 10	 4.104591e+01	 ClickXLbrown4.bmp	 Halva2.bmp	 12	 9	 1	 u	 1	 1	 953.89	 6.11	 6.42	 
bmem_snacks2_119	 0	 1	 01	 1	 11	 4.903821e+01	 KinderBuenoBrown3.bmp	 KifkefMaklot2.bmp	 6	 55	 1	 i	 3	 0	 881.60	 7.33	 3.76	 
bmem_snacks2_119	 0	 1	 01	 1	 12	 5.304274e+01	 Smarties.bmp	 BisliOnion.bmp	 44	 49	 1	 i	 2	 0	 797.09	 4.31	 3.89	 
bmem_snacks2_119	 0	 1	 01	 1	 13	 5.703057e+01	 Loacker.bmp	 Tapuchips.bmp	 16	 13	 0	 i	 1	 1	 753.22	 5.91	 6.07	 
bmem_snacks2_119	 0	 1	 01	 1	 14	 6.403840e+01	 DoritosNatural.bmp	 Tapuchips.bmp	 8	 13	 0	 i	 1	 1	 849.40	 6.47	 6.07	 
bmem_snacks2_119	 0	 1	 01	 1	 15	 6.704167e+01	 Twist.bmp	 HappyHippo.bmp	 42	 41	 1	 u	 5	 1	 758.12	 4.40	 4.42	 
bmem_snacks2_119	 0	 1	 01	 1	 16	 7.004509e+01	 Egozi.bmp	 BisliGrill.bmp	 40	 39	 0	 i	 5	 1	 858.71	 4.51	 4.64	 
bmem_snacks2_119	 0	 1	 01	 1	 17	 8.104085e+01	 ChocolateParaCookies5.bmp	 Snickers.bmp	 17	 18	 0	 i	 1	 1	 726.95	 5.71	 5.60	 
bmem_snacks2_119	 0	 1	 01	 1	 18	 9.303763e+01	 ClickBlackWhite3.bmp	 Tictac.bmp	 54	 52	 0	 u	 2	 0	 818.19	 3.78	 3.84	 
bmem_snacks2_119	 0	 1	 01	 1	 19	 9.804323e+01	 Snickers.bmp	 DoritosNatural.bmp	 18	 8	 1	 u	 1	 1	 884.57	 5.60	 6.47	 
bmem_snacks2_119	 0	 1	 01	 1	 20	 1.010296e+02	 BambaNugat.bmp	 Hit.bmp	 19	 20	 1	 u	 4	 1	 858.19	 5.56	 5.53	 
bmem_snacks2_119	 0	 1	 01	 1	 21	 1.080378e+02	 ChocolateParaCookies5.bmp	 DoritosSourSpicy.bmp	 17	 7	 0	 u	 1	 0	 938.05	 5.71	 7.02	 
bmem_snacks2_119	 0	 1	 01	 1	 22	 1.130433e+02	 DoritosSourSpicy.bmp	 Cheetos.bmp	 7	 11	 1	 u	 1	 1	 1148.48	 7.02	 6.24	 
bmem_snacks2_119	 0	 1	 01	 1	 23	 1.160299e+02	 KinderBuenoWhite2.bmp	 GumiWine2.bmp	 5	 56	 1	 u	 3	 1	 937.90	 7.33	 3.76	 
bmem_snacks2_119	 0	 1	 01	 1	 24	 1.230380e+02	 ChocolateParaCookies5.bmp	 Tapuchips.bmp	 17	 13	 0	 i	 1	 1	 833.85	 5.71	 6.07	 
bmem_snacks2_119	 0	 1	 01	 1	 25	 1.270424e+02	 GumiSnakes3.bmp	 Tictac.bmp	 46	 52	 0	 u	 2	 0	 765.40	 4.04	 3.84	 
bmem_snacks2_119	 0	 1	 01	 1	 26	 1.300288e+02	 Bounty.bmp	 Smarties.bmp	 43	 44	 0	 u	 2	 0	 923.02	 4.33	 4.31	 
bmem_snacks2_119	 0	 1	 01	 1	 27	 1.340337e+02	 Smarties.bmp	 ClickBlackWhite3.bmp	 44	 54	 1	 i	 2	 0	 1006.15	 4.31	 3.78	 
bmem_snacks2_119	 0	 1	 01	 1	 28	 1.400404e+02	 SkittlesFruits2.bmp	 ClickBlackWhite3.bmp	 45	 54	 1	 i	 2	 0	 1151.43	 4.11	 3.78	 
bmem_snacks2_119	 0	 1	 01	 1	 29	 1.430437e+02	 WerthersOriginal.bmp	 Tortit.bmp	 15	 14	 1	 i	 1	 0	 876.09	 5.98	 6.04	 
bmem_snacks2_119	 0	 1	 01	 1	 30	 1.500349e+02	 Loacker.bmp	 ClickXLbrown4.bmp	 16	 12	 0	 i	 1	 1	 940.93	 5.91	 6.11	 
bmem_snacks2_119	 0	 1	 01	 1	 31	 1.640339e+02	 Snickers.bmp	 Tortit.bmp	 18	 14	 1	 u	 1	 1	 1197.89	 5.60	 6.04	 
bmem_snacks2_119	 0	 1	 01	 1	 32	 1.680384e+02	 Tortit.bmp	 Tapuchips.bmp	 14	 13	 0	 u	 1	 0	 713.41	 6.04	 6.07	 
bmem_snacks2_119	 0	 1	 01	 1	 33	 1.810363e+02	 Bounty.bmp	 SkittlesFruits2.bmp	 43	 45	 0	 u	 2	 0	 739.48	 4.33	 4.11	 
bmem_snacks2_119	 0	 1	 01	 1	 34	 1.870430e+02	 Snickers.bmp	 Loacker.bmp	 18	 16	 1	 u	 1	 1	 876.76	 5.60	 5.91	 
bmem_snacks2_119	 0	 1	 01	 1	 35	 1.900632e+02	 DoritosNatural.bmp	 ClickXLbrown4.bmp	 8	 12	 0	 i	 1	 1	 848.63	 6.47	 6.11	 
bmem_snacks2_119	 0	 1	 01	 1	 36	 1.950354e+02	 DoritosSourSpicy.bmp	 Loacker.bmp	 7	 16	 1	 i	 1	 0	 1300.39	 7.02	 5.91	 
bmem_snacks2_119	 0	 1	 01	 1	 37	 1.980387e+02	 ClickBisquit2.bmp	 Bounty.bmp	 50	 43	 1	 i	 2	 0	 753.08	 3.89	 4.33	 
bmem_snacks2_119	 0	 1	 01	 1	 38	 2.030444e+02	 DoritosGrill.bmp	 DoritosNatural.bmp	 10	 8	 1	 i	 1	 0	 1451.43	 6.31	 6.47	 
bmem_snacks2_119	 0	 1	 01	 1	 39	 2.120378e+02	 Cheetos.bmp	 Snickers.bmp	 11	 18	 0	 i	 1	 1	 714.02	 6.24	 5.60	 
bmem_snacks2_119	 0	 1	 01	 1	 40	 2.160423e+02	 BisliOnion.bmp	 Tictac.bmp	 49	 52	 0	 u	 2	 0	 773.51	 3.89	 3.84	 
bmem_snacks2_119	 0	 1	 01	 1	 41	 2.220324e+02	 DoritosNatural.bmp	 DoritosSourSpicy.bmp	 8	 7	 0	 u	 1	 0	 1247.45	 6.47	 7.02	 
bmem_snacks2_119	 0	 1	 01	 1	 42	 2.250357e+02	 ClickBlackWhite3.bmp	 SkittlesSour4.bmp	 54	 53	 0	 u	 2	 0	 1036.06	 3.78	 3.82	 
bmem_snacks2_119	 0	 1	 01	 1	 43	 2.310425e+02	 WerthersOriginal.bmp	 Cheetos.bmp	 15	 11	 1	 i	 1	 0	 1173.34	 5.98	 6.24	 
bmem_snacks2_119	 0	 1	 01	 1	 44	 2.350303e+02	 DoritosGrill.bmp	 Cheetos.bmp	 10	 11	 1	 x	 1	 999	 999000.00	 6.31	 6.24	 
bmem_snacks2_119	 0	 1	 01	 1	 45	 2.410370e+02	 BisliGrill.bmp	 Egozi.bmp	 39	 40	 1	 i	 5	 0	 770.79	 4.64	 4.51	 
bmem_snacks2_119	 0	 1	 01	 1	 46	 2.440404e+02	 Bounty.bmp	 SkittlesSour4.bmp	 43	 53	 0	 u	 2	 0	 919.40	 4.33	 3.82	 
bmem_snacks2_119	 0	 1	 01	 1	 47	 2.470438e+02	 Mentos.bmp	 Smarties.bmp	 48	 44	 0	 u	 2	 0	 1084.01	 3.89	 4.31	 
bmem_snacks2_119	 0	 1	 01	 1	 48	 2.510316e+02	 CrunchShokoVanil.bmp	 Twix.bmp	 22	 21	 1	 i	 4	 0	 720.24	 5.24	 5.49	 
bmem_snacks2_119	 0	 1	 01	 1	 49	 2.590406e+02	 Tictac.bmp	 Mentos.bmp	 52	 48	 1	 i	 2	 0	 911.20	 3.84	 3.89	 
bmem_snacks2_119	 0	 1	 01	 1	 50	 2.630450e+02	 ClickBisquit2.bmp	 GumiSnakes3.bmp	 50	 46	 1	 u	 2	 1	 1178.77	 3.89	 4.04	 
bmem_snacks2_119	 0	 1	 01	 1	 51	 2.660318e+02	 SkittlesSour4.bmp	 BisliOnion.bmp	 53	 49	 1	 i	 2	 0	 1328.04	 3.82	 3.89	 
bmem_snacks2_119	 0	 1	 01	 1	 52	 2.690351e+02	 SkittlesSour4.bmp	 Bamba.bmp	 53	 51	 1	 i	 2	 0	 796.67	 3.82	 3.87	 
bmem_snacks2_119	 0	 1	 01	 1	 53	 2.750419e+02	 Bounty.bmp	 Tictac.bmp	 43	 52	 0	 u	 2	 0	 725.92	 4.33	 3.84	 
bmem_snacks2_119	 0	 1	 01	 1	 54	 2.790294e+02	 Cheetos.bmp	 Tapuchips.bmp	 11	 13	 0	 i	 1	 1	 1042.41	 6.24	 6.07	 
bmem_snacks2_119	 0	 1	 01	 1	 55	 2.820330e+02	 ClickBisquit2.bmp	 BisliOnion.bmp	 50	 49	 1	 u	 2	 1	 1182.77	 3.89	 3.89	 
bmem_snacks2_119	 0	 1	 01	 1	 56	 2.870386e+02	 GumiSnakes3.bmp	 Smarties.bmp	 46	 44	 0	 u	 2	 0	 969.21	 4.04	 4.31	 
bmem_snacks2_119	 0	 1	 01	 1	 57	 2.910431e+02	 KashitSour.bmp	 Mentos.bmp	 47	 48	 1	 i	 2	 0	 1124.71	 4.02	 3.89	 
bmem_snacks2_119	 0	 1	 01	 1	 58	 3.000365e+02	 WerthersOriginal.bmp	 ChocolateParaCookies5.bmp	 15	 17	 1	 i	 1	 0	 859.29	 5.98	 5.71	 
bmem_snacks2_119	 0	 1	 01	 1	 59	 3.050422e+02	 GumiSnakes3.bmp	 SkittlesSour4.bmp	 46	 53	 0	 i	 2	 1	 997.63	 4.04	 3.82	 
bmem_snacks2_119	 0	 1	 01	 1	 60	 3.080456e+02	 ClickBlackWhite3.bmp	 ClickBisquit2.bmp	 54	 50	 0	 i	 2	 1	 1306.21	 3.78	 3.89	 
bmem_snacks2_119	 0	 1	 01	 1	 61	 3.130344e+02	 Bounty.bmp	 KashitSour.bmp	 43	 47	 0	 u	 2	 0	 821.39	 4.33	 4.02	 
bmem_snacks2_119	 0	 1	 01	 1	 62	 3.210435e+02	 Mentos.bmp	 SkittlesFruits2.bmp	 48	 45	 0	 u	 2	 0	 812.32	 3.89	 4.11	 
bmem_snacks2_119	 0	 1	 01	 1	 63	 3.240299e+02	 DoritosGrill.bmp	 Tortit.bmp	 10	 14	 1	 i	 1	 0	 713.87	 6.31	 6.04	 
bmem_snacks2_119	 0	 1	 01	 1	 64	 3.270336e+02	 SkittlesFruits2.bmp	 GumiSnakes3.bmp	 45	 46	 1	 u	 2	 1	 1014.23	 4.11	 4.04	 
bmem_snacks2_119	 0	 1	 01	 1	 65	 3.300369e+02	 Bamba.bmp	 Tictac.bmp	 51	 52	 0	 u	 2	 0	 698.87	 3.87	 3.84	 
bmem_snacks2_119	 0	 1	 01	 1	 66	 3.350425e+02	 ClickBisquit2.bmp	 Bamba.bmp	 50	 51	 1	 u	 2	 1	 1221.33	 3.89	 3.87	 
bmem_snacks2_119	 0	 1	 01	 1	 67	 3.400314e+02	 Snickers.bmp	 Halva2.bmp	 18	 9	 1	 u	 1	 1	 952.39	 5.60	 6.42	 
bmem_snacks2_119	 0	 1	 01	 1	 68	 3.430348e+02	 WerthersOriginal.bmp	 DoritosNatural.bmp	 15	 8	 1	 u	 1	 1	 869.02	 5.98	 6.47	 
bmem_snacks2_119	 0	 1	 01	 1	 69	 3.490415e+02	 HappyHippo.bmp	 Twist.bmp	 41	 42	 0	 i	 5	 1	 758.28	 4.42	 4.40	 
bmem_snacks2_119	 0	 1	 01	 1	 70	 3.530290e+02	 DoritosSourSpicy.bmp	 Tortit.bmp	 7	 14	 1	 i	 1	 0	 722.80	 7.02	 6.04	 
bmem_snacks2_119	 0	 1	 01	 1	 71	 3.560328e+02	 Hit.bmp	 BambaNugat.bmp	 20	 19	 0	 x	 4	 999	 999000.00	 5.53	 5.56	 
bmem_snacks2_119	 0	 1	 01	 1	 72	 3.670451e+02	 ClickXLbrown4.bmp	 Tortit.bmp	 12	 14	 1	 i	 1	 0	 674.75	 6.11	 6.04	 
bmem_snacks2_119	 0	 1	 01	 1	 73	 3.730352e+02	 ClickXLbrown4.bmp	 Cheetos.bmp	 12	 11	 1	 u	 1	 1	 924.69	 6.11	 6.24	 
bmem_snacks2_119	 0	 1	 01	 1	 74	 3.780408e+02	 Halva2.bmp	 DoritosSourSpicy.bmp	 9	 7	 0	 u	 1	 0	 855.02	 6.42	 7.02	 
bmem_snacks2_119	 0	 1	 01	 1	 75	 3.810441e+02	 KifkefMaklot2.bmp	 KinderBuenoWhite2.bmp	 55	 5	 0	 i	 3	 1	 835.70	 3.76	 7.33	 
bmem_snacks2_119	 0	 1	 01	 1	 76	 3.850319e+02	 KashitSour.bmp	 BisliOnion.bmp	 47	 49	 1	 u	 2	 1	 1359.90	 4.02	 3.89	 
bmem_snacks2_119	 0	 1	 01	 1	 77	 3.910387e+02	 Loacker.bmp	 WerthersOriginal.bmp	 16	 15	 0	 u	 1	 0	 913.08	 5.91	 5.98	 
bmem_snacks2_119	 0	 1	 01	 1	 78	 3.950432e+02	 Bamba.bmp	 SkittlesFruits2.bmp	 51	 45	 0	 u	 2	 0	 668.65	 3.87	 4.11	 
bmem_snacks2_119	 0	 1	 01	 1	 79	 3.980296e+02	 KashitSour.bmp	 ClickBlackWhite3.bmp	 47	 54	 1	 i	 2	 0	 1002.21	 4.02	 3.78	 
bmem_snacks2_119	 0	 1	 01	 1	 80	 4.010332e+02	 DoritosGrill.bmp	 Loacker.bmp	 10	 16	 1	 i	 1	 0	 742.58	 6.31	 5.91	 
bmem_snacks2_119	 0	 1	 01	 1	 81	 4.050377e+02	 Mentos.bmp	 SkittlesSour4.bmp	 48	 53	 0	 u	 2	 0	 1202.08	 3.89	 3.82	 
bmem_snacks2_119	 0	 1	 01	 1	 82	 4.110445e+02	 DoritosGrill.bmp	 ChocolateParaCookies5.bmp	 10	 17	 1	 i	 1	 0	 747.29	 6.31	 5.71	 
bmem_snacks2_119	 0	 1	 01	 1	 83	 4.140311e+02	 ClickBisquit2.bmp	 Mentos.bmp	 50	 48	 1	 i	 2	 0	 632.67	 3.89	 3.89	 
bmem_snacks2_119	 0	 1	 01	 1	 84	 4.180357e+02	 DoritosGrill.bmp	 Halva2.bmp	 10	 9	 1	 i	 1	 0	 876.15	 6.31	 6.42	 
