subjectID	scanner	order	block	run	trial	onsettime	ImageLeft	ImageRight	bidIndexLeft	bidIndexRight	IsleftGo	Response	PairType	Outcome	RT	bidLeft	bidRight	
bmem_snacks2_119	 0	 1	 04	 1	 1	 2.035741e+00	 BisliOnion.bmp	 Smarties.bmp	 49	 44	 0	 i	 2	 1	 979.38	 3.89	 4.31	 
bmem_snacks2_119	 0	 1	 04	 1	 2	 8.025486e+00	 ClickXLbrown4.bmp	 Cheetos.bmp	 12	 11	 1	 u	 1	 1	 877.63	 6.11	 6.24	 
bmem_snacks2_119	 0	 1	 04	 1	 3	 1.104590e+01	 DoritosSourSpicy.bmp	 Cheetos.bmp	 7	 11	 1	 u	 1	 1	 1145.20	 7.02	 6.24	 
bmem_snacks2_119	 0	 1	 04	 1	 4	 1.803705e+01	 Bamba.bmp	 SkittlesFruits2.bmp	 51	 45	 0	 u	 2	 0	 1050.06	 3.87	 4.11	 
bmem_snacks2_119	 0	 1	 04	 1	 5	 2.104044e+01	 Tictac.bmp	 Bounty.bmp	 52	 43	 1	 i	 2	 0	 670.68	 3.84	 4.33	 
bmem_snacks2_119	 0	 1	 04	 1	 6	 2.602932e+01	 Snickers.bmp	 Halva2.bmp	 18	 9	 1	 u	 1	 1	 929.80	 5.60	 6.42	 
bmem_snacks2_119	 0	 1	 04	 1	 7	 3.103493e+01	 DoritosNatural.bmp	 DoritosSourSpicy.bmp	 8	 7	 0	 i	 1	 1	 1308.20	 6.47	 7.02	 
bmem_snacks2_119	 0	 1	 04	 1	 8	 3.403828e+01	 ClickBlackWhite3.bmp	 Smarties.bmp	 54	 44	 0	 i	 2	 1	 824.84	 3.78	 4.31	 
bmem_snacks2_119	 0	 1	 04	 1	 9	 3.802585e+01	 GumiSnakes3.bmp	 KashitSour.bmp	 46	 47	 0	 i	 2	 1	 1301.27	 4.04	 4.02	 
bmem_snacks2_119	 0	 1	 04	 1	 10	 4.102949e+01	 ClickBisquit2.bmp	 BisliOnion.bmp	 50	 49	 1	 u	 2	 1	 953.63	 3.89	 3.89	 
bmem_snacks2_119	 0	 1	 04	 1	 11	 4.503400e+01	 ClickXLbrown4.bmp	 Halva2.bmp	 12	 9	 1	 u	 1	 1	 765.11	 6.11	 6.42	 
bmem_snacks2_119	 0	 1	 04	 1	 12	 5.003956e+01	 KashitSour.bmp	 Bamba.bmp	 47	 51	 1	 i	 2	 0	 879.56	 4.02	 3.87	 
bmem_snacks2_119	 0	 1	 04	 1	 13	 5.302609e+01	 WerthersOriginal.bmp	 Cheetos.bmp	 15	 11	 1	 i	 1	 0	 1301.03	 5.98	 6.24	 
bmem_snacks2_119	 0	 1	 04	 1	 14	 5.602967e+01	 CrunchShokoVanil.bmp	 Twix.bmp	 22	 21	 1	 i	 4	 0	 641.42	 5.24	 5.49	 
bmem_snacks2_119	 0	 1	 04	 1	 15	 6.103534e+01	 GumiSnakes3.bmp	 ClickBisquit2.bmp	 46	 50	 0	 i	 2	 1	 987.79	 4.04	 3.89	 
bmem_snacks2_119	 0	 1	 04	 1	 16	 6.902766e+01	 GumiWine2.bmp	 KinderBuenoBrown3.bmp	 56	 6	 0	 i	 3	 1	 899.46	 3.76	 7.33	 
bmem_snacks2_119	 0	 1	 04	 1	 17	 7.403320e+01	 DoritosGrill.bmp	 ChocolateParaCookies5.bmp	 10	 17	 1	 i	 1	 0	 845.91	 6.31	 5.71	 
bmem_snacks2_119	 0	 1	 04	 1	 18	 8.202524e+01	 WerthersOriginal.bmp	 ChocolateParaCookies5.bmp	 15	 17	 1	 i	 1	 0	 749.87	 5.98	 5.71	 
bmem_snacks2_119	 0	 1	 04	 1	 19	 8.603006e+01	 BambaNugat.bmp	 Hit.bmp	 19	 20	 1	 i	 4	 0	 929.06	 5.56	 5.53	 
bmem_snacks2_119	 0	 1	 04	 1	 20	 8.903347e+01	 WerthersOriginal.bmp	 DoritosNatural.bmp	 15	 8	 1	 x	 1	 999	 999000.00	 5.98	 6.47	 
bmem_snacks2_119	 0	 1	 04	 1	 21	 9.203683e+01	 WerthersOriginal.bmp	 Loacker.bmp	 15	 16	 1	 u	 1	 1	 642.28	 5.98	 5.91	 
bmem_snacks2_119	 0	 1	 04	 1	 22	 9.504013e+01	 Twist.bmp	 HappyHippo.bmp	 42	 41	 1	 u	 5	 1	 862.99	 4.40	 4.42	 
bmem_snacks2_119	 0	 1	 04	 1	 23	 9.902796e+01	 KinderBuenoBrown3.bmp	 KifkefMaklot2.bmp	 6	 55	 1	 i	 3	 0	 907.16	 7.33	 3.76	 
bmem_snacks2_119	 0	 1	 04	 1	 24	 1.030325e+02	 SkittlesSour4.bmp	 ClickBlackWhite3.bmp	 53	 54	 1	 i	 2	 0	 62.65	 3.82	 3.78	 
bmem_snacks2_119	 0	 1	 04	 1	 25	 1.090393e+02	 ClickXLbrown4.bmp	 ChocolateParaCookies5.bmp	 12	 17	 1	 i	 1	 0	 847.86	 6.11	 5.71	 
bmem_snacks2_119	 0	 1	 04	 1	 26	 1.190338e+02	 ClickBlackWhite3.bmp	 Tictac.bmp	 54	 52	 0	 u	 2	 0	 893.36	 3.78	 3.84	 
bmem_snacks2_119	 0	 1	 04	 1	 27	 1.220372e+02	 SkittlesSour4.bmp	 BisliOnion.bmp	 53	 49	 1	 u	 2	 1	 1297.95	 3.82	 3.89	 
bmem_snacks2_119	 0	 1	 04	 1	 28	 1.270258e+02	 Snickers.bmp	 Cheetos.bmp	 18	 11	 1	 u	 1	 1	 693.27	 5.60	 6.24	 
bmem_snacks2_119	 0	 1	 04	 1	 29	 1.360362e+02	 BambaNugat.bmp	 Hit.bmp	 19	 20	 1	 i	 4	 0	 1066.94	 5.56	 5.53	 
bmem_snacks2_119	 0	 1	 04	 1	 30	 1.450296e+02	 KinderBuenoWhite2.bmp	 GumiWine2.bmp	 5	 56	 1	 x	 3	 999	 999000.00	 7.33	 3.76	 
bmem_snacks2_119	 0	 1	 04	 1	 31	 1.490341e+02	 Tictac.bmp	 Bamba.bmp	 52	 51	 1	 i	 2	 0	 1212.99	 3.84	 3.87	 
bmem_snacks2_119	 0	 1	 04	 1	 32	 1.570265e+02	 DoritosSourSpicy.bmp	 Halva2.bmp	 7	 9	 1	 i	 1	 0	 1284.59	 7.02	 6.42	 
bmem_snacks2_119	 0	 1	 04	 1	 33	 1.640343e+02	 Halva2.bmp	 DoritosGrill.bmp	 9	 10	 0	 u	 1	 0	 1340.83	 6.42	 6.31	 
bmem_snacks2_119	 0	 1	 04	 1	 34	 1.670377e+02	 WerthersOriginal.bmp	 Halva2.bmp	 15	 9	 1	 i	 1	 0	 785.42	 5.98	 6.42	 
bmem_snacks2_119	 0	 1	 04	 1	 35	 1.700410e+02	 BisliOnion.bmp	 KashitSour.bmp	 49	 47	 0	 i	 2	 1	 1110.10	 3.89	 4.02	 
bmem_snacks2_119	 0	 1	 04	 1	 36	 1.760311e+02	 KinderBuenoWhite2.bmp	 KifkefMaklot2.bmp	 5	 55	 1	 i	 3	 0	 904.01	 7.33	 3.76	 
bmem_snacks2_119	 0	 1	 04	 1	 37	 1.810367e+02	 Tapuchips.bmp	 DoritosNatural.bmp	 13	 8	 1	 u	 1	 1	 1082.47	 6.07	 6.47	 
bmem_snacks2_119	 0	 1	 04	 1	 38	 1.850413e+02	 Loacker.bmp	 DoritosGrill.bmp	 16	 10	 0	 u	 1	 0	 989.86	 5.91	 6.31	 
bmem_snacks2_119	 0	 1	 04	 1	 39	 1.900301e+02	 Snickers.bmp	 ChocolateParaCookies5.bmp	 18	 17	 1	 u	 1	 1	 1137.01	 5.60	 5.71	 
bmem_snacks2_119	 0	 1	 04	 1	 40	 1.930335e+02	 SkittlesSour4.bmp	 Mentos.bmp	 53	 48	 1	 u	 2	 1	 1245.63	 3.82	 3.89	 
bmem_snacks2_119	 0	 1	 04	 1	 41	 1.960369e+02	 ClickBlackWhite3.bmp	 SkittlesFruits2.bmp	 54	 45	 0	 x	 2	 999	 999000.00	 3.78	 4.11	 
bmem_snacks2_119	 0	 1	 04	 1	 42	 2.040292e+02	 DoritosGrill.bmp	 DoritosNatural.bmp	 10	 8	 1	 x	 1	 999	 999000.00	 6.31	 6.47	 
bmem_snacks2_119	 0	 1	 04	 1	 43	 2.090348e+02	 KashitSour.bmp	 Bounty.bmp	 47	 43	 1	 i	 2	 0	 884.29	 4.02	 4.33	 
bmem_snacks2_119	 0	 1	 04	 1	 44	 2.130393e+02	 Bamba.bmp	 Smarties.bmp	 51	 44	 0	 i	 2	 1	 1303.83	 3.87	 4.31	 
bmem_snacks2_119	 0	 1	 04	 1	 45	 2.160257e+02	 Mentos.bmp	 SkittlesFruits2.bmp	 48	 45	 0	 i	 2	 1	 1133.44	 3.89	 4.11	 
bmem_snacks2_119	 0	 1	 04	 1	 46	 2.190294e+02	 Loacker.bmp	 Snickers.bmp	 16	 18	 0	 i	 1	 1	 705.71	 5.91	 5.60	 
bmem_snacks2_119	 0	 1	 04	 1	 47	 2.230338e+02	 HappyHippo.bmp	 Twist.bmp	 41	 42	 0	 i	 5	 1	 709.29	 4.42	 4.40	 
bmem_snacks2_119	 0	 1	 04	 1	 48	 2.260372e+02	 Tortit.bmp	 WerthersOriginal.bmp	 14	 15	 0	 u	 1	 0	 1321.89	 6.04	 5.98	 
bmem_snacks2_119	 0	 1	 04	 1	 49	 2.310259e+02	 ChocolateParaCookies5.bmp	 DoritosSourSpicy.bmp	 17	 7	 0	 u	 1	 0	 1109.26	 5.71	 7.02	 
bmem_snacks2_119	 0	 1	 04	 1	 50	 2.340295e+02	 SkittlesSour4.bmp	 GumiSnakes3.bmp	 53	 46	 1	 u	 2	 1	 1097.58	 3.82	 4.04	 
bmem_snacks2_119	 0	 1	 04	 1	 51	 2.370329e+02	 ClickXLbrown4.bmp	 Loacker.bmp	 12	 16	 1	 u	 1	 1	 1030.21	 6.11	 5.91	 
bmem_snacks2_119	 0	 1	 04	 1	 52	 2.410374e+02	 Cheetos.bmp	 Tapuchips.bmp	 11	 13	 0	 i	 1	 1	 945.71	 6.24	 6.07	 
bmem_snacks2_119	 0	 1	 04	 1	 53	 2.440407e+02	 BisliOnion.bmp	 Tictac.bmp	 49	 52	 0	 u	 2	 0	 942.40	 3.89	 3.84	 
bmem_snacks2_119	 0	 1	 04	 1	 54	 2.470275e+02	 Egozi.bmp	 BisliGrill.bmp	 40	 39	 0	 i	 5	 1	 931.63	 4.51	 4.64	 
bmem_snacks2_119	 0	 1	 04	 1	 55	 2.510320e+02	 Loacker.bmp	 Tapuchips.bmp	 16	 13	 0	 i	 1	 1	 887.16	 5.91	 6.07	 
bmem_snacks2_119	 0	 1	 04	 1	 56	 2.640298e+02	 ClickBlackWhite3.bmp	 ClickBisquit2.bmp	 54	 50	 0	 i	 2	 1	 793.27	 3.78	 3.89	 
bmem_snacks2_119	 0	 1	 04	 1	 57	 2.680343e+02	 Halva2.bmp	 Tapuchips.bmp	 9	 13	 0	 i	 1	 1	 852.80	 6.42	 6.07	 
bmem_snacks2_119	 0	 1	 04	 1	 58	 2.720389e+02	 Bounty.bmp	 SkittlesFruits2.bmp	 43	 45	 0	 i	 2	 1	 936.24	 4.33	 4.11	 
bmem_snacks2_119	 0	 1	 04	 1	 59	 2.760267e+02	 DoritosNatural.bmp	 ClickXLbrown4.bmp	 8	 12	 0	 i	 1	 1	 836.39	 6.47	 6.11	 
bmem_snacks2_119	 0	 1	 04	 1	 60	 2.850368e+02	 ClickBisquit2.bmp	 Bounty.bmp	 50	 43	 1	 i	 2	 0	 618.36	 3.89	 4.33	 
bmem_snacks2_119	 0	 1	 04	 1	 61	 2.890412e+02	 Tapuchips.bmp	 ChocolateParaCookies5.bmp	 13	 17	 1	 i	 1	 0	 869.86	 6.07	 5.71	 
bmem_snacks2_119	 0	 1	 04	 1	 62	 2.920614e+02	 BisliOnion.bmp	 SkittlesFruits2.bmp	 49	 45	 0	 i	 2	 1	 1041.73	 3.89	 4.11	 
bmem_snacks2_119	 0	 1	 04	 1	 63	 2.960325e+02	 Snickers.bmp	 DoritosNatural.bmp	 18	 8	 1	 u	 1	 1	 782.65	 5.60	 6.47	 
bmem_snacks2_119	 0	 1	 04	 1	 64	 3.010381e+02	 Mentos.bmp	 Smarties.bmp	 48	 44	 0	 i	 2	 1	 1225.01	 3.89	 4.31	 
bmem_snacks2_119	 0	 1	 04	 1	 65	 3.060270e+02	 DoritosGrill.bmp	 Cheetos.bmp	 10	 11	 1	 x	 1	 999	 999000.00	 6.31	 6.24	 
bmem_snacks2_119	 0	 1	 04	 1	 66	 3.140360e+02	 DoritosSourSpicy.bmp	 Tortit.bmp	 7	 14	 1	 i	 1	 0	 739.12	 7.02	 6.04	 
bmem_snacks2_119	 0	 1	 04	 1	 67	 3.170394e+02	 SkittlesSour4.bmp	 Bounty.bmp	 53	 43	 1	 i	 2	 0	 567.74	 3.82	 4.33	 
bmem_snacks2_119	 0	 1	 04	 1	 68	 3.200259e+02	 Tortit.bmp	 Tapuchips.bmp	 14	 13	 0	 i	 1	 1	 837.26	 6.04	 6.07	 
bmem_snacks2_119	 0	 1	 04	 1	 69	 3.280350e+02	 Mentos.bmp	 KashitSour.bmp	 48	 47	 0	 u	 2	 0	 860.08	 3.89	 4.02	 
bmem_snacks2_119	 0	 1	 04	 1	 70	 3.310384e+02	 GumiSnakes3.bmp	 Smarties.bmp	 46	 44	 0	 i	 2	 1	 872.68	 4.04	 4.31	 
bmem_snacks2_119	 0	 1	 04	 1	 71	 3.440363e+02	 Bamba.bmp	 SkittlesSour4.bmp	 51	 53	 0	 i	 2	 1	 1130.78	 3.87	 3.82	 
bmem_snacks2_119	 0	 1	 04	 1	 72	 3.510275e+02	 ClickBlackWhite3.bmp	 KashitSour.bmp	 54	 47	 0	 u	 2	 0	 907.60	 3.78	 4.02	 
bmem_snacks2_119	 0	 1	 04	 1	 73	 3.560331e+02	 GumiSnakes3.bmp	 SkittlesFruits2.bmp	 46	 45	 0	 i	 2	 1	 1133.96	 4.04	 4.11	 
bmem_snacks2_119	 0	 1	 04	 1	 74	 3.600377e+02	 Snickers.bmp	 Tortit.bmp	 18	 14	 1	 u	 1	 1	 985.45	 5.60	 6.04	 
bmem_snacks2_119	 0	 1	 04	 1	 75	 3.640251e+02	 Twix.bmp	 CrunchShokoVanil.bmp	 21	 22	 0	 u	 4	 0	 1070.01	 5.49	 5.24	 
bmem_snacks2_119	 0	 1	 04	 1	 76	 3.710333e+02	 Mentos.bmp	 ClickBisquit2.bmp	 48	 50	 0	 i	 2	 1	 829.85	 3.89	 3.89	 
bmem_snacks2_119	 0	 1	 04	 1	 77	 3.780412e+02	 Egozi.bmp	 BisliGrill.bmp	 40	 39	 0	 i	 5	 1	 1045.89	 4.51	 4.64	 
bmem_snacks2_119	 0	 1	 04	 1	 78	 3.820290e+02	 DoritosSourSpicy.bmp	 Loacker.bmp	 7	 16	 1	 i	 1	 0	 1146.07	 7.02	 5.91	 
bmem_snacks2_119	 0	 1	 04	 1	 79	 3.860335e+02	 GumiSnakes3.bmp	 Tictac.bmp	 46	 52	 0	 i	 2	 1	 981.61	 4.04	 3.84	 
bmem_snacks2_119	 0	 1	 04	 1	 80	 3.950271e+02	 Tortit.bmp	 DoritosGrill.bmp	 14	 10	 0	 u	 1	 0	 932.01	 6.04	 6.31	 
bmem_snacks2_119	 0	 1	 04	 1	 81	 3.990313e+02	 Mentos.bmp	 Tictac.bmp	 48	 52	 0	 u	 2	 0	 1303.77	 3.89	 3.84	 
bmem_snacks2_119	 0	 1	 04	 1	 82	 4.090256e+02	 Smarties.bmp	 Bounty.bmp	 44	 43	 1	 i	 2	 0	 1053.50	 4.31	 4.33	 
bmem_snacks2_119	 0	 1	 04	 1	 83	 4.130305e+02	 Bamba.bmp	 ClickBisquit2.bmp	 51	 50	 0	 i	 2	 1	 952.66	 3.87	 3.89	 
bmem_snacks2_119	 0	 1	 04	 1	 84	 4.180361e+02	 Tortit.bmp	 ClickXLbrown4.bmp	 14	 12	 0	 i	 1	 1	 779.00	 6.04	 6.11	 
