subjectID	scanner	order	block	run	trial	onsettime	ImageLeft	ImageRight	bidIndexLeft	bidIndexRight	IsleftGo	Response	PairType	Outcome	RT	bidLeft	bidRight	
bmem_snacks2_132	 0	 2	 01	 1	 1	 2.018635e+00	 Egozi.bmp	 DoritosNatural.bmp	 43	 52	 1	 u	 2	 1	 699.18	 2.82	 2.73	 
bmem_snacks2_132	 0	 2	 01	 1	 2	 7.024212e+00	 SkittlesSour4.bmp	 Bounty.bmp	 53	 48	 0	 i	 2	 1	 661.60	 2.73	 2.78	 
bmem_snacks2_132	 0	 2	 01	 1	 3	 1.701875e+01	 Bamba.bmp	 DoritosNatural.bmp	 49	 52	 1	 u	 2	 1	 771.06	 2.78	 2.73	 
bmem_snacks2_132	 0	 2	 01	 1	 4	 2.102323e+01	 Apropo.bmp	 KinderJoy.bmp	 22	 21	 0	 i	 4	 1	 950.58	 4.91	 4.91	 
bmem_snacks2_132	 0	 2	 01	 1	 5	 2.601196e+01	 ClickXLbrown4.bmp	 BisliPizza3.bmp	 8	 7	 1	 u	 1	 1	 921.85	 9.04	 9.11	 
bmem_snacks2_132	 0	 2	 01	 1	 6	 3.201890e+01	 Cheetos.bmp	 Shugi.bmp	 54	 47	 1	 i	 2	 0	 882.92	 2.69	 2.78	 
bmem_snacks2_132	 0	 2	 01	 1	 7	 3.702457e+01	 CrunchBisquitBrown3.bmp	 Kitkat.bmp	 14	 13	 1	 u	 1	 1	 773.23	 7.02	 7.04	 
bmem_snacks2_132	 0	 2	 01	 1	 8	 4.001107e+01	 HappyHippo.bmp	 Snickers.bmp	 46	 45	 1	 i	 2	 0	 690.74	 2.78	 2.80	 
bmem_snacks2_132	 0	 2	 01	 1	 9	 4.301457e+01	 BagaleShtuhim.bmp	 Tortit.bmp	 17	 15	 1	 u	 1	 1	 1023.22	 6.00	 6.98	 
bmem_snacks2_132	 0	 2	 01	 1	 10	 4.601793e+01	 Cheetos.bmp	 Mentos.bmp	 54	 50	 1	 i	 2	 0	 747.87	 2.69	 2.76	 
bmem_snacks2_132	 0	 2	 01	 1	 11	 4.902130e+01	 Mentos.bmp	 HispusimShatiah.bmp	 50	 51	 0	 u	 2	 0	 736.51	 2.76	 2.76	 
bmem_snacks2_132	 0	 2	 01	 1	 12	 5.601227e+01	 Twix.bmp	 Tortit.bmp	 16	 15	 1	 u	 1	 1	 745.54	 6.00	 6.98	 
bmem_snacks2_132	 0	 2	 01	 1	 13	 5.901585e+01	 Mentos.bmp	 Egozi.bmp	 50	 43	 0	 u	 2	 0	 605.97	 2.76	 2.82	 
bmem_snacks2_132	 0	 2	 01	 1	 14	 6.201929e+01	 Mentos.bmp	 Bamba.bmp	 50	 49	 0	 u	 2	 0	 754.52	 2.76	 2.78	 
bmem_snacks2_132	 0	 2	 01	 1	 15	 6.702492e+01	 HappyHippo.bmp	 SkittlesSour4.bmp	 46	 53	 1	 u	 2	 1	 1308.89	 2.78	 2.73	 
bmem_snacks2_132	 0	 2	 01	 1	 16	 7.301488e+01	 HispusimShatiah.bmp	 DoritosNatural.bmp	 51	 52	 1	 u	 2	 1	 638.94	 2.76	 2.73	 
bmem_snacks2_132	 0	 2	 01	 1	 17	 7.802056e+01	 ClickXLbrown4.bmp	 ClickBisquit2.bmp	 8	 12	 1	 u	 1	 1	 649.24	 9.04	 7.04	 
bmem_snacks2_132	 0	 2	 01	 1	 18	 8.302612e+01	 ClickBisquit2.bmp	 Twix.bmp	 12	 16	 0	 u	 1	 0	 635.68	 7.04	 6.00	 
bmem_snacks2_132	 0	 2	 01	 1	 19	 9.201953e+01	 Shugi.bmp	 HispusimShatiah.bmp	 47	 51	 0	 u	 2	 0	 642.27	 2.78	 2.76	 
bmem_snacks2_132	 0	 2	 01	 1	 20	 9.702512e+01	 PesekZman.bmp	 ClickBlackWhite3.bmp	 20	 19	 1	 i	 4	 0	 660.68	 5.87	 5.89	 
bmem_snacks2_132	 0	 2	 01	 1	 21	 1.030152e+02	 Twix.bmp	 KifkefMaklot2.bmp	 16	 18	 1	 u	 1	 1	 750.56	 6.00	 5.96	 
bmem_snacks2_132	 0	 2	 01	 1	 22	 1.060186e+02	 KifkefMaklot2.bmp	 ClickXLbrown4.bmp	 18	 8	 0	 i	 1	 1	 691.20	 5.96	 9.04	 
bmem_snacks2_132	 0	 2	 01	 1	 23	 1.190164e+02	 Bounty.bmp	 Shugi.bmp	 48	 47	 1	 u	 2	 1	 797.38	 2.78	 2.78	 
bmem_snacks2_132	 0	 2	 01	 1	 24	 1.230210e+02	 CrunchBisquitBrown3.bmp	 BisliPizza3.bmp	 14	 7	 1	 u	 1	 1	 624.79	 7.02	 9.11	 
bmem_snacks2_132	 0	 2	 01	 1	 25	 1.290277e+02	 CrunchBisquitBrown3.bmp	 KifkefMaklot2.bmp	 14	 18	 1	 u	 1	 1	 602.14	 7.02	 5.96	 
bmem_snacks2_132	 0	 2	 01	 1	 26	 1.360189e+02	 CrunchBisquitBrown3.bmp	 Taami.bmp	 14	 10	 1	 u	 1	 1	 754.89	 7.02	 7.07	 
bmem_snacks2_132	 0	 2	 01	 1	 27	 1.410245e+02	 BisliPizza3.bmp	 ClickBalls5.bmp	 7	 11	 0	 i	 1	 1	 765.29	 9.11	 7.07	 
bmem_snacks2_132	 0	 2	 01	 1	 28	 1.440278e+02	 ClickBisquit2.bmp	 ChocolateParaSucariotKoftzot2.bmp	 12	 9	 0	 u	 1	 0	 986.01	 7.04	 8.93	 
bmem_snacks2_132	 0	 2	 01	 1	 29	 1.470146e+02	 ClickBlackWhite3.bmp	 PesekZman.bmp	 19	 20	 0	 i	 4	 1	 1015.24	 5.89	 5.87	 
bmem_snacks2_132	 0	 2	 01	 1	 30	 1.500179e+02	 GumiWine2.bmp	 ClickXLwhite4.bmp	 55	 6	 0	 i	 3	 1	 1259.85	 2.67	 9.16	 
bmem_snacks2_132	 0	 2	 01	 1	 31	 1.530212e+02	 Apropo.bmp	 KinderJoy.bmp	 22	 21	 0	 i	 4	 1	 856.57	 4.91	 4.91	 
bmem_snacks2_132	 0	 2	 01	 1	 32	 1.570257e+02	 Shugi.bmp	 HappyHippo.bmp	 47	 46	 0	 i	 2	 1	 964.08	 2.78	 2.78	 
bmem_snacks2_132	 0	 2	 01	 1	 33	 1.600122e+02	 Cheetos.bmp	 SkittlesSour4.bmp	 54	 53	 1	 i	 2	 0	 857.62	 2.69	 2.73	 
bmem_snacks2_132	 0	 2	 01	 1	 34	 1.690225e+02	 ChocolateParaSucariotKoftzot2.bmp	 BisliPizza3.bmp	 9	 7	 1	 u	 1	 1	 679.28	 8.93	 9.11	 
bmem_snacks2_132	 0	 2	 01	 1	 35	 1.730270e+02	 Taami.bmp	 ClickBalls5.bmp	 10	 11	 0	 i	 1	 1	 738.78	 7.07	 7.07	 
bmem_snacks2_132	 0	 2	 01	 1	 36	 1.760137e+02	 Bamba.bmp	 Shugi.bmp	 49	 47	 1	 u	 2	 1	 1184.13	 2.78	 2.78	 
bmem_snacks2_132	 0	 2	 01	 1	 37	 1.880271e+02	 KifkefMaklot2.bmp	 ChocolateParaSucariotKoftzot2.bmp	 18	 9	 0	 u	 1	 0	 762.69	 5.96	 8.93	 
bmem_snacks2_132	 0	 2	 01	 1	 38	 1.920150e+02	 ClickXLbrown4.bmp	 Kitkat.bmp	 8	 13	 1	 u	 1	 1	 1478.77	 9.04	 7.04	 
bmem_snacks2_132	 0	 2	 01	 1	 39	 1.950184e+02	 SkittlesSour4.bmp	 Egozi.bmp	 53	 43	 0	 i	 2	 1	 835.45	 2.73	 2.82	 
bmem_snacks2_132	 0	 2	 01	 1	 40	 1.990228e+02	 DoritosNatural.bmp	 Bounty.bmp	 52	 48	 0	 i	 2	 1	 639.05	 2.73	 2.78	 
bmem_snacks2_132	 0	 2	 01	 1	 41	 2.030273e+02	 BisliOnion.bmp	 SkittlesFruits2.bmp	 5	 56	 1	 i	 3	 0	 938.48	 9.18	 2.62	 
bmem_snacks2_132	 0	 2	 01	 1	 42	 2.080162e+02	 ClickBalls5.bmp	 Kitkat.bmp	 11	 13	 1	 u	 1	 1	 797.61	 7.07	 7.04	 
bmem_snacks2_132	 0	 2	 01	 1	 43	 2.160252e+02	 ClickBisquit2.bmp	 CrunchBisquitBrown3.bmp	 12	 14	 0	 i	 1	 1	 812.62	 7.04	 7.02	 
bmem_snacks2_132	 0	 2	 01	 1	 44	 2.200127e+02	 Mekupelet.bmp	 Bounty.bmp	 44	 48	 0	 i	 2	 1	 689.08	 2.82	 2.78	 
bmem_snacks2_132	 0	 2	 01	 1	 45	 2.240175e+02	 Tortit.bmp	 CrunchBisquitBrown3.bmp	 15	 14	 0	 i	 1	 1	 828.27	 6.98	 7.02	 
bmem_snacks2_132	 0	 2	 01	 1	 46	 2.380165e+02	 Tortit.bmp	 ChocolateParaSucariotKoftzot2.bmp	 15	 9	 0	 i	 1	 1	 685.27	 6.98	 8.93	 
bmem_snacks2_132	 0	 2	 01	 1	 47	 2.410198e+02	 ClickBalls5.bmp	 KifkefMaklot2.bmp	 11	 18	 1	 u	 1	 1	 897.98	 7.07	 5.96	 
bmem_snacks2_132	 0	 2	 01	 1	 48	 2.450244e+02	 Smarties.bmp	 KashitSour.bmp	 42	 41	 0	 i	 5	 1	 1261.45	 2.84	 3.11	 
bmem_snacks2_132	 0	 2	 01	 1	 49	 2.490121e+02	 DoritosNatural.bmp	 HappyHippo.bmp	 52	 46	 0	 i	 2	 1	 1305.73	 2.73	 2.78	 
bmem_snacks2_132	 0	 2	 01	 1	 50	 2.550189e+02	 ClickBisquit2.bmp	 ClickBalls5.bmp	 12	 11	 0	 u	 1	 0	 730.97	 7.04	 7.07	 
bmem_snacks2_132	 0	 2	 01	 1	 51	 2.580222e+02	 SkittlesFruits2.bmp	 ClickXLwhite4.bmp	 56	 6	 0	 i	 3	 1	 1359.57	 2.62	 9.16	 
bmem_snacks2_132	 0	 2	 01	 1	 52	 2.610256e+02	 Bamba.bmp	 Mekupelet.bmp	 49	 44	 1	 i	 2	 0	 956.21	 2.78	 2.82	 
bmem_snacks2_132	 0	 2	 01	 1	 53	 2.660145e+02	 Kitkat.bmp	 ChocolateParaSucariotKoftzot2.bmp	 13	 9	 0	 i	 1	 1	 1159.26	 7.04	 8.93	 
bmem_snacks2_132	 0	 2	 01	 1	 54	 2.760257e+02	 BisliOnion.bmp	 GumiWine2.bmp	 5	 55	 1	 u	 3	 1	 1220.07	 9.18	 2.67	 
bmem_snacks2_132	 0	 2	 01	 1	 55	 2.790122e+02	 BisliPizza3.bmp	 BagaleShtuhim.bmp	 7	 17	 0	 i	 1	 1	 1433.64	 9.11	 6.00	 
bmem_snacks2_132	 0	 2	 01	 1	 56	 2.820159e+02	 Twix.bmp	 BisliPizza3.bmp	 16	 7	 1	 u	 1	 1	 1285.95	 6.00	 9.11	 
bmem_snacks2_132	 0	 2	 01	 1	 57	 2.870214e+02	 Snickers.bmp	 Bounty.bmp	 45	 48	 0	 u	 2	 0	 1008.35	 2.80	 2.78	 
bmem_snacks2_132	 0	 2	 01	 1	 58	 2.900248e+02	 Bamba.bmp	 Snickers.bmp	 49	 45	 1	 i	 2	 0	 741.05	 2.78	 2.80	 
bmem_snacks2_132	 0	 2	 01	 1	 59	 2.960148e+02	 Tortit.bmp	 ClickXLbrown4.bmp	 15	 8	 0	 u	 1	 0	 935.02	 6.98	 9.04	 
bmem_snacks2_132	 0	 2	 01	 1	 60	 2.990182e+02	 BagaleShtuhim.bmp	 Kitkat.bmp	 17	 13	 1	 x	 1	 999	 999000.00	 6.00	 7.04	 
bmem_snacks2_132	 0	 2	 01	 1	 61	 3.040239e+02	 Taami.bmp	 ClickXLbrown4.bmp	 10	 8	 0	 i	 1	 1	 989.96	 7.07	 9.04	 
bmem_snacks2_132	 0	 2	 01	 1	 62	 3.070274e+02	 ChocolateParaSucariotKoftzot2.bmp	 Taami.bmp	 9	 10	 1	 i	 1	 0	 738.38	 8.93	 7.07	 
bmem_snacks2_132	 0	 2	 01	 1	 63	 3.150195e+02	 CrunchShokoVanil.bmp	 KinderBuenoWhite2.bmp	 40	 39	 1	 i	 5	 0	 986.30	 3.31	 3.73	 
bmem_snacks2_132	 0	 2	 01	 1	 64	 3.190240e+02	 HispusimShatiah.bmp	 SkittlesSour4.bmp	 51	 53	 1	 u	 2	 1	 781.81	 2.76	 2.73	 
bmem_snacks2_132	 0	 2	 01	 1	 65	 3.230284e+02	 Mekupelet.bmp	 Cheetos.bmp	 44	 54	 0	 u	 2	 0	 1129.39	 2.82	 2.69	 
bmem_snacks2_132	 0	 2	 01	 1	 66	 3.280173e+02	 Tortit.bmp	 ClickBalls5.bmp	 15	 11	 0	 i	 1	 1	 996.46	 6.98	 7.07	 
bmem_snacks2_132	 0	 2	 01	 1	 67	 3.320219e+02	 ClickBisquit2.bmp	 BagaleShtuhim.bmp	 12	 17	 0	 u	 1	 0	 679.95	 7.04	 6.00	 
bmem_snacks2_132	 0	 2	 01	 1	 68	 3.370274e+02	 Cheetos.bmp	 DoritosNatural.bmp	 54	 52	 1	 u	 2	 1	 690.38	 2.69	 2.73	 
bmem_snacks2_132	 0	 2	 01	 1	 69	 3.450198e+02	 Egozi.bmp	 Shugi.bmp	 43	 47	 1	 u	 2	 1	 834.03	 2.82	 2.78	 
bmem_snacks2_132	 0	 2	 01	 1	 70	 3.480232e+02	 Mekupelet.bmp	 HappyHippo.bmp	 44	 46	 0	 i	 2	 1	 1022.66	 2.82	 2.78	 
bmem_snacks2_132	 0	 2	 01	 1	 71	 3.510264e+02	 Bamba.bmp	 SkittlesSour4.bmp	 49	 53	 1	 u	 2	 1	 1331.39	 2.78	 2.73	 
bmem_snacks2_132	 0	 2	 01	 1	 72	 3.560154e+02	 Snickers.bmp	 Egozi.bmp	 45	 43	 0	 i	 2	 1	 710.40	 2.80	 2.82	 
bmem_snacks2_132	 0	 2	 01	 1	 73	 3.600200e+02	 Egozi.bmp	 Mekupelet.bmp	 43	 44	 1	 u	 2	 1	 809.81	 2.82	 2.82	 
bmem_snacks2_132	 0	 2	 01	 1	 74	 3.630232e+02	 BagaleShtuhim.bmp	 Taami.bmp	 17	 10	 1	 i	 1	 0	 782.56	 6.00	 7.07	 
bmem_snacks2_132	 0	 2	 01	 1	 75	 3.740189e+02	 Kitkat.bmp	 Twix.bmp	 13	 16	 0	 i	 1	 1	 922.88	 7.04	 6.00	 
bmem_snacks2_132	 0	 2	 01	 1	 76	 3.840135e+02	 Mekupelet.bmp	 HispusimShatiah.bmp	 44	 51	 0	 i	 2	 1	 1320.34	 2.82	 2.76	 
bmem_snacks2_132	 0	 2	 01	 1	 77	 3.890190e+02	 Mentos.bmp	 HappyHippo.bmp	 50	 46	 0	 u	 2	 0	 962.80	 2.76	 2.78	 
bmem_snacks2_132	 0	 2	 01	 1	 78	 3.930235e+02	 CrunchShokoVanil.bmp	 KinderBuenoWhite2.bmp	 40	 39	 1	 i	 5	 0	 782.32	 3.31	 3.73	 
bmem_snacks2_132	 0	 2	 01	 1	 79	 3.970280e+02	 KashitSour.bmp	 Smarties.bmp	 41	 42	 1	 u	 5	 1	 801.80	 3.11	 2.84	 
bmem_snacks2_132	 0	 2	 01	 1	 80	 4.010159e+02	 Snickers.bmp	 HispusimShatiah.bmp	 45	 51	 0	 i	 2	 1	 813.96	 2.80	 2.76	 
bmem_snacks2_132	 0	 2	 01	 1	 81	 4.070226e+02	 BagaleShtuhim.bmp	 KifkefMaklot2.bmp	 17	 18	 1	 u	 1	 1	 1071.25	 6.00	 5.96	 
bmem_snacks2_132	 0	 2	 01	 1	 82	 4.100259e+02	 Snickers.bmp	 Cheetos.bmp	 45	 54	 0	 i	 2	 1	 1435.95	 2.80	 2.69	 
bmem_snacks2_132	 0	 2	 01	 1	 83	 4.140137e+02	 Twix.bmp	 Taami.bmp	 16	 10	 1	 i	 1	 0	 664.10	 6.00	 7.07	 
bmem_snacks2_132	 0	 2	 01	 1	 84	 4.180182e+02	 Mentos.bmp	 Bounty.bmp	 50	 48	 0	 i	 2	 1	 883.61	 2.76	 2.78	 
