subjectID	scanner	order	block	run	trial	onsettime	ImageLeft	ImageRight	bidIndexLeft	bidIndexRight	IsleftGo	Response	PairType	Outcome	RT	bidLeft	bidRight	
bmem_snacks2_129	 0	 1	 02	 1	 1	 2.018943e+00	 KashitSour.bmp	 Tortit.bmp	 48	 52	 0	 u	 2	 0	 815.75	 1.09	 0.51	 
bmem_snacks2_129	 0	 1	 02	 1	 2	 8.008956e+00	 HispusimShatiah.bmp	 Twist.bmp	 46	 53	 0	 u	 2	 0	 729.74	 1.60	 0.38	 
bmem_snacks2_129	 0	 1	 02	 1	 3	 1.101227e+01	 HispusimShatiah.bmp	 BabyDoll.bmp	 46	 50	 0	 i	 2	 1	 758.42	 1.60	 0.64	 
bmem_snacks2_129	 0	 1	 02	 1	 4	 1.800363e+01	 ClickBlackWhite3.bmp	 WerthersOriginal.bmp	 9	 18	 0	 u	 1	 0	 887.07	 3.80	 3.76	 
bmem_snacks2_129	 0	 1	 02	 1	 5	 2.100688e+01	 ClickBisquit2.bmp	 HappyHippo.bmp	 13	 14	 1	 u	 1	 1	 739.82	 3.78	 3.76	 
bmem_snacks2_129	 0	 1	 02	 1	 6	 2.601248e+01	 Twist.bmp	 DoritosSourSpicy.bmp	 53	 43	 1	 u	 2	 1	 766.23	 0.38	 1.62	 
bmem_snacks2_129	 0	 1	 02	 1	 7	 3.101809e+01	 ClickBisquit2.bmp	 Cheetos.bmp	 13	 8	 1	 u	 1	 1	 1024.61	 3.78	 3.82	 
bmem_snacks2_129	 0	 1	 02	 1	 8	 3.400478e+01	 GumiWine2.bmp	 Tictac.bmp	 51	 45	 0	 i	 2	 1	 1213.92	 0.60	 1.60	 
bmem_snacks2_129	 0	 1	 02	 1	 9	 3.800934e+01	 Bounty.bmp	 Kitkat.bmp	 49	 47	 0	 i	 2	 1	 1001.37	 0.64	 1.56	 
bmem_snacks2_129	 0	 1	 02	 1	 10	 4.101265e+01	 Twist.bmp	 GumiWine2.bmp	 53	 51	 1	 u	 2	 1	 822.05	 0.38	 0.60	 
bmem_snacks2_129	 0	 1	 02	 1	 11	 4.501712e+01	 KifkefMaklot2.bmp	 CrunchBisquitBrown3.bmp	 19	 20	 1	 i	 4	 0	 1041.58	 3.73	 3.73	 
bmem_snacks2_129	 0	 1	 02	 1	 12	 5.000609e+01	 Tictac.bmp	 DoritosSourSpicy.bmp	 45	 43	 1	 u	 2	 1	 868.61	 1.60	 1.62	 
bmem_snacks2_129	 0	 1	 02	 1	 13	 5.300956e+01	 Tictac.bmp	 Bounty.bmp	 45	 49	 1	 u	 2	 1	 929.14	 1.60	 0.64	 
bmem_snacks2_129	 0	 1	 02	 1	 14	 5.601284e+01	 Snickers.bmp	 BisliGrill.bmp	 42	 41	 1	 u	 5	 1	 1141.85	 1.67	 1.67	 
bmem_snacks2_129	 0	 1	 02	 1	 15	 6.101852e+01	 BabyDoll.bmp	 DoritosSourSpicy.bmp	 50	 43	 1	 u	 2	 1	 848.19	 0.64	 1.62	 
bmem_snacks2_129	 0	 1	 02	 1	 16	 6.901077e+01	 Mentos.bmp	 ClickXLwhite4.bmp	 54	 44	 0	 i	 2	 1	 839.93	 0.36	 1.62	 
bmem_snacks2_129	 0	 1	 02	 1	 17	 7.401640e+01	 Smarties.bmp	 Apropo.bmp	 39	 40	 1	 i	 5	 0	 706.30	 1.78	 1.69	 
bmem_snacks2_129	 0	 1	 02	 1	 18	 8.200875e+01	 ClickBisquit2.bmp	 ChocolateParaMarir2.bmp	 13	 16	 1	 u	 1	 1	 793.95	 3.78	 3.76	 
bmem_snacks2_129	 0	 1	 02	 1	 19	 8.601320e+01	 GumiWine2.bmp	 BabyDoll.bmp	 51	 50	 0	 i	 2	 1	 709.50	 0.60	 0.64	 
bmem_snacks2_129	 0	 1	 02	 1	 20	 8.901663e+01	 Twix.bmp	 ClickBisquit2.bmp	 11	 13	 0	 i	 1	 1	 642.06	 3.78	 3.78	 
bmem_snacks2_129	 0	 1	 02	 1	 21	 9.200337e+01	 KashitSour.bmp	 Kitkat.bmp	 48	 47	 0	 u	 2	 0	 855.33	 1.09	 1.56	 
bmem_snacks2_129	 0	 1	 02	 1	 22	 9.500667e+01	 ClickXLbrown4.bmp	 WerthersOriginal.bmp	 17	 18	 0	 u	 1	 0	 932.04	 3.76	 3.76	 
bmem_snacks2_129	 0	 1	 02	 1	 23	 9.901115e+01	 HappyHippo.bmp	 ChocolateParaCookies5.bmp	 14	 12	 0	 x	 1	 999	 999000.00	 3.76	 3.78	 
bmem_snacks2_129	 0	 1	 02	 1	 24	 1.030156e+02	 WerthersOriginal.bmp	 ChocolateParaMarir2.bmp	 18	 16	 1	 u	 1	 1	 931.11	 3.76	 3.76	 
bmem_snacks2_129	 0	 1	 02	 1	 25	 1.090058e+02	 Shugi.bmp	 ChocolateParaMilk3.bmp	 21	 22	 0	 i	 4	 1	 748.90	 3.73	 3.71	 
bmem_snacks2_129	 0	 1	 02	 1	 26	 1.190171e+02	 Tortit.bmp	 Mentos.bmp	 52	 54	 1	 u	 2	 1	 577.63	 0.51	 0.36	 
bmem_snacks2_129	 0	 1	 02	 1	 27	 1.220033e+02	 ClickBalls5.bmp	 BisliPizza3.bmp	 6	 56	 1	 u	 3	 1	 607.41	 3.91	 0.33	 
bmem_snacks2_129	 0	 1	 02	 1	 28	 1.270092e+02	 ClickBalls5.bmp	 Egozi.bmp	 6	 55	 1	 u	 3	 1	 849.46	 3.91	 0.36	 
bmem_snacks2_129	 0	 1	 02	 1	 29	 1.360024e+02	 BabyDoll.bmp	 Bounty.bmp	 50	 49	 1	 u	 2	 1	 664.34	 0.64	 0.64	 
bmem_snacks2_129	 0	 1	 02	 1	 30	 1.450129e+02	 CrunchBisquitWhite2.bmp	 Twix.bmp	 7	 11	 1	 u	 1	 1	 701.84	 3.84	 3.78	 
bmem_snacks2_129	 0	 1	 02	 1	 31	 1.490173e+02	 Cheetos.bmp	 WerthersOriginal.bmp	 8	 18	 0	 u	 1	 0	 785.42	 3.82	 3.76	 
bmem_snacks2_129	 0	 1	 02	 1	 32	 1.570096e+02	 KinderBuenoBrown3.bmp	 HappyHippo.bmp	 15	 14	 1	 i	 1	 0	 657.10	 3.76	 3.76	 
bmem_snacks2_129	 0	 1	 02	 1	 33	 1.640175e+02	 Kitkat.bmp	 GumiWine2.bmp	 47	 51	 1	 u	 2	 1	 921.16	 1.56	 0.60	 
bmem_snacks2_129	 0	 1	 02	 1	 34	 1.670041e+02	 ClickBlackWhite3.bmp	 KinderBuenoBrown3.bmp	 9	 15	 0	 u	 1	 0	 982.55	 3.80	 3.76	 
bmem_snacks2_129	 0	 1	 02	 1	 35	 1.700076e+02	 Mentos.bmp	 Kitkat.bmp	 54	 47	 0	 i	 2	 1	 779.11	 0.36	 1.56	 
bmem_snacks2_129	 0	 1	 02	 1	 36	 1.760142e+02	 Cheetos.bmp	 CrunchBisquitWhite2.bmp	 8	 7	 0	 i	 1	 1	 636.47	 3.82	 3.84	 
bmem_snacks2_129	 0	 1	 02	 1	 37	 1.810032e+02	 Kitkat.bmp	 DoritosSourSpicy.bmp	 47	 43	 1	 u	 2	 1	 847.52	 1.56	 1.62	 
bmem_snacks2_129	 0	 1	 02	 1	 38	 1.850077e+02	 Tortit.bmp	 HispusimShatiah.bmp	 52	 46	 1	 i	 2	 0	 779.02	 0.51	 1.60	 
bmem_snacks2_129	 0	 1	 02	 1	 39	 1.900133e+02	 Twix.bmp	 Bamba.bmp	 11	 10	 0	 i	 1	 1	 701.36	 3.78	 3.80	 
bmem_snacks2_129	 0	 1	 02	 1	 40	 1.930166e+02	 ClickBlackWhite3.bmp	 Bamba.bmp	 9	 10	 0	 u	 1	 0	 1058.04	 3.80	 3.80	 
bmem_snacks2_129	 0	 1	 02	 1	 41	 1.960031e+02	 Twix.bmp	 ChocolateParaCookies5.bmp	 11	 12	 0	 i	 1	 1	 599.56	 3.78	 3.78	 
bmem_snacks2_129	 0	 1	 02	 1	 42	 2.040124e+02	 HappyHippo.bmp	 Bamba.bmp	 14	 10	 0	 u	 1	 0	 790.33	 3.76	 3.80	 
bmem_snacks2_129	 0	 1	 02	 1	 43	 2.090180e+02	 Snickers.bmp	 BisliGrill.bmp	 42	 41	 1	 i	 5	 0	 928.76	 1.67	 1.67	 
bmem_snacks2_129	 0	 1	 02	 1	 44	 2.130058e+02	 ChocolateParaSucariotKoftzot2.bmp	 BisliPizza3.bmp	 5	 56	 1	 u	 3	 1	 924.93	 4.84	 0.33	 
bmem_snacks2_129	 0	 1	 02	 1	 45	 2.160091e+02	 ChocolateParaSucariotKoftzot2.bmp	 Egozi.bmp	 5	 55	 1	 u	 3	 1	 681.56	 4.84	 0.36	 
bmem_snacks2_129	 0	 1	 02	 1	 46	 2.190125e+02	 BabyDoll.bmp	 Mentos.bmp	 50	 54	 1	 u	 2	 1	 598.18	 0.64	 0.36	 
bmem_snacks2_129	 0	 1	 02	 1	 47	 2.230170e+02	 ChocolateParaCookies5.bmp	 ClickXLbrown4.bmp	 12	 17	 1	 u	 1	 1	 609.71	 3.78	 3.76	 
bmem_snacks2_129	 0	 1	 02	 1	 48	 2.260035e+02	 Mentos.bmp	 Tictac.bmp	 54	 45	 0	 i	 2	 1	 687.20	 0.36	 1.60	 
bmem_snacks2_129	 0	 1	 02	 1	 49	 2.310094e+02	 ChocolateParaMilk3.bmp	 Shugi.bmp	 22	 21	 1	 u	 4	 1	 713.31	 3.71	 3.73	 
bmem_snacks2_129	 0	 1	 02	 1	 50	 2.340127e+02	 Tortit.bmp	 DoritosSourSpicy.bmp	 52	 43	 1	 u	 2	 1	 886.03	 0.51	 1.62	 
bmem_snacks2_129	 0	 1	 02	 1	 51	 2.370161e+02	 KashitSour.bmp	 Twist.bmp	 48	 53	 0	 i	 2	 1	 834.60	 1.09	 0.38	 
bmem_snacks2_129	 0	 1	 02	 1	 52	 2.410038e+02	 Bamba.bmp	 ChocolateParaMarir2.bmp	 10	 16	 1	 u	 1	 1	 798.85	 3.80	 3.76	 
bmem_snacks2_129	 0	 1	 02	 1	 53	 2.440072e+02	 Twist.bmp	 Mentos.bmp	 53	 54	 1	 u	 2	 1	 683.49	 0.38	 0.36	 
bmem_snacks2_129	 0	 1	 02	 1	 54	 2.470107e+02	 KashitSour.bmp	 Tictac.bmp	 48	 45	 0	 i	 2	 1	 688.05	 1.09	 1.60	 
bmem_snacks2_129	 0	 1	 02	 1	 55	 2.510151e+02	 GumiWine2.bmp	 ClickXLwhite4.bmp	 51	 44	 0	 i	 2	 1	 707.56	 0.60	 1.62	 
bmem_snacks2_129	 0	 1	 02	 1	 56	 2.640130e+02	 HappyHippo.bmp	 WerthersOriginal.bmp	 14	 18	 0	 u	 1	 0	 869.70	 3.76	 3.76	 
bmem_snacks2_129	 0	 1	 02	 1	 57	 2.680176e+02	 HappyHippo.bmp	 CrunchBisquitWhite2.bmp	 14	 7	 0	 i	 1	 1	 649.10	 3.76	 3.84	 
bmem_snacks2_129	 0	 1	 02	 1	 58	 2.720053e+02	 ChocolateParaMarir2.bmp	 KinderBuenoBrown3.bmp	 16	 15	 0	 i	 1	 1	 605.36	 3.76	 3.76	 
bmem_snacks2_129	 0	 1	 02	 1	 59	 2.760098e+02	 ClickBlackWhite3.bmp	 CrunchBisquitWhite2.bmp	 9	 7	 0	 i	 1	 1	 744.86	 3.80	 3.84	 
bmem_snacks2_129	 0	 1	 02	 1	 60	 2.850033e+02	 ClickXLbrown4.bmp	 CrunchBisquitWhite2.bmp	 17	 7	 0	 i	 1	 1	 751.36	 3.76	 3.84	 
bmem_snacks2_129	 0	 1	 02	 1	 61	 2.890079e+02	 ClickBlackWhite3.bmp	 ChocolateParaCookies5.bmp	 9	 12	 0	 u	 1	 0	 898.83	 3.80	 3.78	 
bmem_snacks2_129	 0	 1	 02	 1	 62	 2.920111e+02	 Smarties.bmp	 Apropo.bmp	 39	 40	 1	 i	 5	 0	 695.58	 1.78	 1.69	 
bmem_snacks2_129	 0	 1	 02	 1	 63	 2.960156e+02	 CrunchBisquitWhite2.bmp	 ChocolateParaMarir2.bmp	 7	 16	 1	 u	 1	 1	 699.09	 3.84	 3.76	 
bmem_snacks2_129	 0	 1	 02	 1	 64	 3.010046e+02	 Twix.bmp	 WerthersOriginal.bmp	 11	 18	 0	 i	 1	 1	 614.05	 3.78	 3.76	 
bmem_snacks2_129	 0	 1	 02	 1	 65	 3.060103e+02	 ClickBisquit2.bmp	 ClickBlackWhite3.bmp	 13	 9	 1	 i	 1	 0	 728.45	 3.78	 3.80	 
bmem_snacks2_129	 0	 1	 02	 1	 66	 3.140023e+02	 ClickXLbrown4.bmp	 ClickBisquit2.bmp	 17	 13	 0	 i	 1	 1	 640.41	 3.76	 3.78	 
bmem_snacks2_129	 0	 1	 02	 1	 67	 3.170058e+02	 Bounty.bmp	 ClickXLwhite4.bmp	 49	 44	 0	 i	 2	 1	 588.89	 0.64	 1.62	 
bmem_snacks2_129	 0	 1	 02	 1	 68	 3.200092e+02	 Bamba.bmp	 Cheetos.bmp	 10	 8	 1	 i	 1	 0	 729.45	 3.80	 3.82	 
bmem_snacks2_129	 0	 1	 02	 1	 69	 3.280182e+02	 Twix.bmp	 KinderBuenoBrown3.bmp	 11	 15	 0	 i	 1	 1	 592.53	 3.78	 3.76	 
bmem_snacks2_129	 0	 1	 02	 1	 70	 3.310049e+02	 GumiWine2.bmp	 Tortit.bmp	 51	 52	 0	 i	 2	 1	 981.77	 0.60	 0.51	 
bmem_snacks2_129	 0	 1	 02	 1	 71	 3.440025e+02	 Cheetos.bmp	 ChocolateParaCookies5.bmp	 8	 12	 0	 u	 1	 0	 760.22	 3.82	 3.78	 
bmem_snacks2_129	 0	 1	 02	 1	 72	 3.510107e+02	 HispusimShatiah.bmp	 Tictac.bmp	 46	 45	 0	 u	 2	 0	 671.98	 1.60	 1.60	 
bmem_snacks2_129	 0	 1	 02	 1	 73	 3.560163e+02	 Cheetos.bmp	 KinderBuenoBrown3.bmp	 8	 15	 0	 u	 1	 0	 794.42	 3.82	 3.76	 
bmem_snacks2_129	 0	 1	 02	 1	 74	 3.600041e+02	 Bamba.bmp	 ClickXLbrown4.bmp	 10	 17	 1	 i	 1	 0	 950.60	 3.80	 3.76	 
bmem_snacks2_129	 0	 1	 02	 1	 75	 3.640086e+02	 ClickXLwhite4.bmp	 KashitSour.bmp	 44	 48	 1	 u	 2	 1	 890.06	 1.62	 1.09	 
bmem_snacks2_129	 0	 1	 02	 1	 76	 3.710165e+02	 KifkefMaklot2.bmp	 CrunchBisquitBrown3.bmp	 19	 20	 1	 i	 4	 0	 690.24	 3.73	 3.73	 
bmem_snacks2_129	 0	 1	 02	 1	 77	 3.780077e+02	 KinderBuenoBrown3.bmp	 ClickXLbrown4.bmp	 15	 17	 1	 u	 1	 1	 891.03	 3.76	 3.76	 
bmem_snacks2_129	 0	 1	 02	 1	 78	 3.820122e+02	 Twist.bmp	 Bounty.bmp	 53	 49	 1	 u	 2	 1	 870.53	 0.38	 0.64	 
bmem_snacks2_129	 0	 1	 02	 1	 79	 3.860166e+02	 DoritosSourSpicy.bmp	 ClickXLwhite4.bmp	 43	 44	 0	 i	 2	 1	 1042.10	 1.62	 1.62	 
bmem_snacks2_129	 0	 1	 02	 1	 80	 3.950101e+02	 KashitSour.bmp	 BabyDoll.bmp	 48	 50	 0	 i	 2	 1	 904.64	 1.09	 0.64	 
bmem_snacks2_129	 0	 1	 02	 1	 81	 3.990146e+02	 ChocolateParaCookies5.bmp	 ChocolateParaMarir2.bmp	 12	 16	 1	 u	 1	 1	 716.07	 3.78	 3.76	 
bmem_snacks2_129	 0	 1	 02	 1	 82	 4.090092e+02	 Kitkat.bmp	 HispusimShatiah.bmp	 47	 46	 1	 i	 2	 0	 985.53	 1.56	 1.60	 
bmem_snacks2_129	 0	 1	 02	 1	 83	 4.130136e+02	 Tortit.bmp	 Bounty.bmp	 52	 49	 1	 u	 2	 1	 1013.07	 0.51	 0.64	 
bmem_snacks2_129	 0	 1	 02	 1	 84	 4.180025e+02	 HispusimShatiah.bmp	 ClickXLwhite4.bmp	 46	 44	 0	 u	 2	 0	 760.22	 1.60	 1.62	 
