subjectID	scanner	order	block	run	trial	onsettime	ImageLeft	ImageRight	bidIndexLeft	bidIndexRight	IsleftGo	Response	PairType	Outcome	RT	bidLeft	bidRight	
bmem_snacks2_113	 0	 1	 02	 1	 1	 2.035807e+00	 Popco.bmp	 WerthersOriginal.bmp	 44	 51	 1	 u	 2	 1	 814.97	 1.00	 0.76	 
bmem_snacks2_113	 0	 1	 02	 1	 2	 8.042519e+00	 BisliPizza3.bmp	 BagaleShtuhim.bmp	 43	 45	 0	 i	 2	 1	 760.26	 1.00	 0.96	 
bmem_snacks2_113	 0	 1	 02	 1	 3	 1.104588e+01	 BisliGrill.bmp	 Tortit.bmp	 48	 52	 0	 u	 2	 0	 948.89	 0.80	 0.71	 
bmem_snacks2_113	 0	 1	 02	 1	 4	 1.803708e+01	 Dubonim.bmp	 ChocolateParaMilk3.bmp	 22	 21	 1	 i	 4	 0	 813.74	 2.11	 2.16	 
bmem_snacks2_113	 0	 1	 02	 1	 5	 2.104049e+01	 Popco.bmp	 GumiWine2.bmp	 44	 49	 1	 i	 2	 0	 1242.30	 1.00	 0.78	 
bmem_snacks2_113	 0	 1	 02	 1	 6	 2.604611e+01	 WerthersOriginal.bmp	 ChocolateParaCookies5.bmp	 51	 47	 0	 i	 2	 1	 828.68	 0.76	 0.87	 
bmem_snacks2_113	 0	 1	 02	 1	 7	 3.103510e+01	 BisliPizza3.bmp	 Popco.bmp	 43	 44	 0	 i	 2	 1	 911.67	 1.00	 1.00	 
bmem_snacks2_113	 0	 1	 02	 1	 8	 3.403843e+01	 WerthersOriginal.bmp	 BagaleShtuhim.bmp	 51	 45	 0	 i	 2	 1	 812.36	 0.76	 0.96	 
bmem_snacks2_113	 0	 1	 02	 1	 9	 3.804288e+01	 ClickBalls5.bmp	 KifkefMaklot2.bmp	 15	 8	 1	 i	 1	 0	 775.90	 2.51	 3.56	 
bmem_snacks2_113	 0	 1	 02	 1	 10	 4.104624e+01	 SkittlesSour4.bmp	 KifkefMaklot2.bmp	 7	 8	 1	 i	 1	 0	 708.52	 4.64	 3.56	 
bmem_snacks2_113	 0	 1	 02	 1	 11	 4.505083e+01	 Keifli.bmp	 ClickBalls5.bmp	 14	 15	 0	 i	 1	 1	 743.95	 2.64	 2.51	 
bmem_snacks2_113	 0	 1	 02	 1	 12	 5.003976e+01	 Loacker.bmp	 Egozi.bmp	 19	 20	 1	 i	 4	 0	 947.03	 2.29	 2.20	 
bmem_snacks2_113	 0	 1	 02	 1	 13	 5.304313e+01	 ClickBalls5.bmp	 Apropo.bmp	 15	 11	 1	 u	 1	 1	 1159.65	 2.51	 3.13	 
bmem_snacks2_113	 0	 1	 02	 1	 14	 5.604642e+01	 BagaleShtuhim.bmp	 KinderJoy.bmp	 45	 46	 1	 u	 2	 1	 908.36	 0.96	 0.93	 
bmem_snacks2_113	 0	 1	 02	 1	 15	 6.103515e+01	 BisliPizza3.bmp	 Tortit.bmp	 43	 52	 0	 u	 2	 0	 1039.63	 1.00	 0.71	 
bmem_snacks2_113	 0	 1	 02	 1	 16	 6.904436e+01	 Bounty.bmp	 CrunchShokoVanil.bmp	 42	 41	 1	 i	 5	 0	 846.43	 1.00	 1.16	 
bmem_snacks2_113	 0	 1	 02	 1	 17	 7.405003e+01	 BisliPizza3.bmp	 ChocolateParaCookies5.bmp	 43	 47	 0	 i	 2	 1	 696.75	 1.00	 0.87	 
bmem_snacks2_113	 0	 1	 02	 1	 18	 8.204235e+01	 BisliGrill.bmp	 Popco.bmp	 48	 44	 0	 i	 2	 1	 880.42	 0.80	 1.00	 
bmem_snacks2_113	 0	 1	 02	 1	 19	 8.604677e+01	 Twix.bmp	 TapuchipsCrunch.bmp	 53	 54	 1	 i	 2	 0	 1020.01	 0.69	 0.67	 
bmem_snacks2_113	 0	 1	 02	 1	 20	 8.905012e+01	 BisliGrill.bmp	 Twix.bmp	 48	 53	 0	 u	 2	 0	 960.66	 0.80	 0.69	 
bmem_snacks2_113	 0	 1	 02	 1	 21	 9.203688e+01	 ClickBalls5.bmp	 Shugi.bmp	 15	 16	 1	 i	 1	 0	 925.90	 2.51	 2.38	 
bmem_snacks2_113	 0	 1	 02	 1	 22	 9.504025e+01	 Apropo.bmp	 Mekupelet.bmp	 11	 13	 0	 u	 1	 0	 906.52	 3.13	 2.69	 
bmem_snacks2_113	 0	 1	 02	 1	 23	 9.904474e+01	 WerthersOriginal.bmp	 BambaNugat.bmp	 51	 50	 0	 i	 2	 1	 654.04	 0.76	 0.78	 
bmem_snacks2_113	 0	 1	 02	 1	 24	 1.030492e+02	 Shugi.bmp	 Mentos.bmp	 16	 12	 0	 i	 1	 1	 721.57	 2.38	 2.87	 
bmem_snacks2_113	 0	 1	 02	 1	 25	 1.090393e+02	 KashitSour.bmp	 Apropo.bmp	 18	 11	 1	 u	 1	 1	 915.48	 2.33	 3.13	 
bmem_snacks2_113	 0	 1	 02	 1	 26	 1.190506e+02	 Twix.bmp	 WerthersOriginal.bmp	 53	 51	 1	 u	 2	 1	 1152.21	 0.69	 0.76	 
bmem_snacks2_113	 0	 1	 02	 1	 27	 1.220372e+02	 BambaSweet.bmp	 Mekupelet.bmp	 9	 13	 0	 u	 1	 0	 797.54	 3.42	 2.69	 
bmem_snacks2_113	 0	 1	 02	 1	 28	 1.270428e+02	 TapuchipsCrunch.bmp	 BambaNugat.bmp	 54	 50	 0	 i	 2	 1	 799.96	 0.67	 0.78	 
bmem_snacks2_113	 0	 1	 02	 1	 29	 1.360364e+02	 Mars.bmp	 DoritosGrill.bmp	 40	 39	 0	 i	 5	 1	 958.43	 1.18	 1.20	 
bmem_snacks2_113	 0	 1	 02	 1	 30	 1.450463e+02	 Tortit.bmp	 WerthersOriginal.bmp	 52	 51	 1	 u	 2	 1	 1116.47	 0.71	 0.76	 
bmem_snacks2_113	 0	 1	 02	 1	 31	 1.490339e+02	 KashitSour.bmp	 KifkefMaklot2.bmp	 18	 8	 1	 i	 1	 0	 1088.85	 2.33	 3.56	 
bmem_snacks2_113	 0	 1	 02	 1	 32	 1.570432e+02	 DoritosGrill.bmp	 Mars.bmp	 39	 40	 1	 u	 5	 1	 831.60	 1.20	 1.18	 
bmem_snacks2_113	 0	 1	 02	 1	 33	 1.640341e+02	 SkittlesSour4.bmp	 Apropo.bmp	 7	 11	 1	 u	 1	 1	 1096.64	 4.64	 3.13	 
bmem_snacks2_113	 0	 1	 02	 1	 34	 1.670377e+02	 PesekZman.bmp	 Smarties.bmp	 6	 55	 1	 u	 3	 1	 1101.09	 4.87	 0.67	 
bmem_snacks2_113	 0	 1	 02	 1	 35	 1.700411e+02	 Shugi.bmp	 ClickBlackWhite3.bmp	 16	 10	 0	 i	 1	 1	 1081.67	 2.38	 3.18	 
bmem_snacks2_113	 0	 1	 02	 1	 36	 1.760479e+02	 Mekupelet.bmp	 Shugi.bmp	 13	 16	 1	 i	 1	 0	 1194.90	 2.69	 2.38	 
bmem_snacks2_113	 0	 1	 02	 1	 37	 1.810368e+02	 ClickXLwhite4.bmp	 GumiSnakes3.bmp	 5	 56	 1	 u	 3	 1	 1173.95	 5.22	 0.67	 
bmem_snacks2_113	 0	 1	 02	 1	 38	 1.850413e+02	 BisliPizza3.bmp	 Twix.bmp	 43	 53	 0	 u	 2	 0	 985.50	 1.00	 0.69	 
bmem_snacks2_113	 0	 1	 02	 1	 39	 1.900469e+02	 Snickers.bmp	 KashitSour.bmp	 17	 18	 0	 i	 1	 1	 755.92	 2.33	 2.33	 
bmem_snacks2_113	 0	 1	 02	 1	 40	 1.930503e+02	 Snickers.bmp	 ClickBlackWhite3.bmp	 17	 10	 0	 i	 1	 1	 832.45	 2.33	 3.18	 
bmem_snacks2_113	 0	 1	 02	 1	 41	 1.960369e+02	 Smarties.bmp	 ClickXLwhite4.bmp	 55	 5	 0	 i	 3	 1	 589.83	 0.67	 5.22	 
bmem_snacks2_113	 0	 1	 02	 1	 42	 2.040459e+02	 BisliGrill.bmp	 ChocolateParaCookies5.bmp	 48	 47	 0	 i	 2	 1	 700.87	 0.80	 0.87	 
bmem_snacks2_113	 0	 1	 02	 1	 43	 2.090346e+02	 Mekupelet.bmp	 Keifli.bmp	 13	 14	 1	 i	 1	 0	 1016.13	 2.69	 2.64	 
bmem_snacks2_113	 0	 1	 02	 1	 44	 2.130393e+02	 Keifli.bmp	 Mentos.bmp	 14	 12	 0	 i	 1	 1	 731.43	 2.64	 2.87	 
bmem_snacks2_113	 0	 1	 02	 1	 45	 2.160428e+02	 BambaSweet.bmp	 Mentos.bmp	 9	 12	 0	 u	 1	 0	 1032.02	 3.42	 2.87	 
bmem_snacks2_113	 0	 1	 02	 1	 46	 2.190462e+02	 Mentos.bmp	 Snickers.bmp	 12	 17	 1	 u	 1	 1	 996.63	 2.87	 2.33	 
bmem_snacks2_113	 0	 1	 02	 1	 47	 2.230337e+02	 BambaSweet.bmp	 ClickBlackWhite3.bmp	 9	 10	 0	 u	 1	 0	 633.08	 3.42	 3.18	 
bmem_snacks2_113	 0	 1	 02	 1	 48	 2.260373e+02	 Loacker.bmp	 Egozi.bmp	 19	 20	 1	 i	 4	 0	 973.45	 2.29	 2.20	 
bmem_snacks2_113	 0	 1	 02	 1	 49	 2.310429e+02	 GumiWine2.bmp	 ChocolateParaCookies5.bmp	 49	 47	 0	 i	 2	 1	 975.88	 0.78	 0.87	 
bmem_snacks2_113	 0	 1	 02	 1	 50	 2.340463e+02	 Mekupelet.bmp	 KifkefMaklot2.bmp	 13	 8	 1	 i	 1	 0	 1044.46	 2.69	 3.56	 
bmem_snacks2_113	 0	 1	 02	 1	 51	 2.370496e+02	 Popco.bmp	 KinderJoy.bmp	 44	 46	 1	 u	 2	 1	 1073.13	 1.00	 0.93	 
bmem_snacks2_113	 0	 1	 02	 1	 52	 2.410374e+02	 BagaleShtuhim.bmp	 TapuchipsCrunch.bmp	 45	 54	 1	 u	 2	 1	 1061.35	 0.96	 0.67	 
bmem_snacks2_113	 0	 1	 02	 1	 53	 2.440409e+02	 GumiWine2.bmp	 Tortit.bmp	 49	 52	 0	 i	 2	 1	 777.90	 0.78	 0.71	 
bmem_snacks2_113	 0	 1	 02	 1	 54	 2.470442e+02	 KinderJoy.bmp	 BambaNugat.bmp	 46	 50	 0	 i	 2	 1	 822.60	 0.93	 0.78	 
bmem_snacks2_113	 0	 1	 02	 1	 55	 2.510487e+02	 ChocolateParaMilk3.bmp	 Dubonim.bmp	 21	 22	 0	 u	 4	 0	 898.06	 2.16	 2.11	 
bmem_snacks2_113	 0	 1	 02	 1	 56	 2.640466e+02	 Keifli.bmp	 SkittlesSour4.bmp	 14	 7	 0	 i	 1	 1	 860.12	 2.64	 4.64	 
bmem_snacks2_113	 0	 1	 02	 1	 57	 2.680342e+02	 BagaleShtuhim.bmp	 GumiWine2.bmp	 45	 49	 1	 u	 2	 1	 848.56	 0.96	 0.78	 
bmem_snacks2_113	 0	 1	 02	 1	 58	 2.720389e+02	 GumiSnakes3.bmp	 PesekZman.bmp	 56	 6	 0	 i	 3	 1	 1163.88	 0.67	 4.87	 
bmem_snacks2_113	 0	 1	 02	 1	 59	 2.760434e+02	 GumiWine2.bmp	 BambaNugat.bmp	 49	 50	 0	 i	 2	 1	 911.36	 0.78	 0.78	 
bmem_snacks2_113	 0	 1	 02	 1	 60	 2.850368e+02	 Twix.bmp	 GumiWine2.bmp	 53	 49	 1	 i	 2	 0	 717.98	 0.69	 0.78	 
bmem_snacks2_113	 0	 1	 02	 1	 61	 2.890414e+02	 BambaNugat.bmp	 BisliPizza3.bmp	 50	 43	 1	 u	 2	 1	 1017.40	 0.78	 1.00	 
bmem_snacks2_113	 0	 1	 02	 1	 62	 2.920447e+02	 ChocolateParaCookies5.bmp	 TapuchipsCrunch.bmp	 47	 54	 1	 x	 2	 999	 999000.00	 0.87	 0.67	 
bmem_snacks2_113	 0	 1	 02	 1	 63	 2.960492e+02	 Snickers.bmp	 SkittlesSour4.bmp	 17	 7	 0	 i	 1	 1	 577.58	 2.33	 4.64	 
bmem_snacks2_113	 0	 1	 02	 1	 64	 3.010381e+02	 BagaleShtuhim.bmp	 BisliGrill.bmp	 45	 48	 1	 u	 2	 1	 1028.62	 0.96	 0.80	 
bmem_snacks2_113	 0	 1	 02	 1	 65	 3.060437e+02	 ClickBlackWhite3.bmp	 Keifli.bmp	 10	 14	 1	 u	 1	 1	 1023.06	 3.18	 2.64	 
bmem_snacks2_113	 0	 1	 02	 1	 66	 3.140361e+02	 Mentos.bmp	 Apropo.bmp	 12	 11	 1	 u	 1	 1	 862.68	 2.87	 3.13	 
bmem_snacks2_113	 0	 1	 02	 1	 67	 3.170391e+02	 KifkefMaklot2.bmp	 ClickBlackWhite3.bmp	 8	 10	 0	 u	 1	 0	 723.64	 3.56	 3.18	 
bmem_snacks2_113	 0	 1	 02	 1	 68	 3.200428e+02	 Keifli.bmp	 KashitSour.bmp	 14	 18	 0	 i	 1	 1	 856.02	 2.64	 2.33	 
bmem_snacks2_113	 0	 1	 02	 1	 69	 3.280352e+02	 Snickers.bmp	 Mekupelet.bmp	 17	 13	 0	 i	 1	 1	 967.62	 2.33	 2.69	 
bmem_snacks2_113	 0	 1	 02	 1	 70	 3.310384e+02	 BambaSweet.bmp	 ClickBalls5.bmp	 9	 15	 0	 u	 1	 0	 932.33	 3.42	 2.51	 
bmem_snacks2_113	 0	 1	 02	 1	 71	 3.440364e+02	 Shugi.bmp	 SkittlesSour4.bmp	 16	 7	 0	 i	 1	 1	 694.42	 2.38	 4.64	 
bmem_snacks2_113	 0	 1	 02	 1	 72	 3.510442e+02	 Popco.bmp	 TapuchipsCrunch.bmp	 44	 54	 1	 u	 2	 1	 942.55	 1.00	 0.67	 
bmem_snacks2_113	 0	 1	 02	 1	 73	 3.560499e+02	 KinderJoy.bmp	 Twix.bmp	 46	 53	 0	 i	 2	 1	 840.87	 0.93	 0.69	 
bmem_snacks2_113	 0	 1	 02	 1	 74	 3.600377e+02	 KashitSour.bmp	 Shugi.bmp	 18	 16	 1	 u	 1	 1	 869.09	 2.33	 2.38	 
bmem_snacks2_113	 0	 1	 02	 1	 75	 3.640422e+02	 BambaSweet.bmp	 KashitSour.bmp	 9	 18	 0	 u	 1	 0	 624.54	 3.42	 2.33	 
bmem_snacks2_113	 0	 1	 02	 1	 76	 3.710501e+02	 Bounty.bmp	 CrunchShokoVanil.bmp	 42	 41	 1	 i	 5	 0	 984.67	 1.00	 1.16	 
bmem_snacks2_113	 0	 1	 02	 1	 77	 3.780413e+02	 SkittlesSour4.bmp	 BambaSweet.bmp	 7	 9	 1	 i	 1	 0	 633.53	 4.64	 3.42	 
bmem_snacks2_113	 0	 1	 02	 1	 78	 3.820457e+02	 ChocolateParaCookies5.bmp	 KinderJoy.bmp	 47	 46	 1	 u	 2	 1	 861.09	 0.87	 0.93	 
bmem_snacks2_113	 0	 1	 02	 1	 79	 3.860502e+02	 BambaNugat.bmp	 BisliGrill.bmp	 50	 48	 1	 u	 2	 1	 896.53	 0.78	 0.80	 
bmem_snacks2_113	 0	 1	 02	 1	 80	 3.950437e+02	 ClickBlackWhite3.bmp	 Apropo.bmp	 10	 11	 1	 i	 1	 0	 815.08	 3.18	 3.13	 
bmem_snacks2_113	 0	 1	 02	 1	 81	 3.990481e+02	 ClickBalls5.bmp	 Snickers.bmp	 15	 17	 1	 u	 1	 1	 826.66	 2.51	 2.33	 
bmem_snacks2_113	 0	 1	 02	 1	 82	 4.090428e+02	 Tortit.bmp	 TapuchipsCrunch.bmp	 52	 54	 1	 i	 2	 0	 952.01	 0.71	 0.67	 
bmem_snacks2_113	 0	 1	 02	 1	 83	 4.130472e+02	 KifkefMaklot2.bmp	 Mentos.bmp	 8	 12	 0	 u	 1	 0	 907.54	 3.56	 2.87	 
bmem_snacks2_113	 0	 1	 02	 1	 84	 4.180361e+02	 KinderJoy.bmp	 Tortit.bmp	 46	 52	 0	 u	 2	 0	 1118.63	 0.93	 0.71	 
