subjectID	scanner	order	block	run	trial	onsettime	ImageLeft	ImageRight	bidIndexLeft	bidIndexRight	IsleftGo	Response	PairType	Outcome	RT	bidLeft	bidRight	
bmem_snacks2_114	 0	 2	 04	 1	 1	 2.018822e+00	 BisliOnion.bmp	 Cheetos.bmp	 54	 52	 1	 i	 2	 0	 979.24	 0.09	 0.09	 
bmem_snacks2_114	 0	 2	 04	 1	 2	 8.008953e+00	 BisliOnion.bmp	 BagaleShtuhim.bmp	 54	 44	 1	 i	 2	 0	 877.10	 0.09	 0.16	 
bmem_snacks2_114	 0	 2	 04	 1	 3	 1.102896e+01	 HispusimShatiah.bmp	 TapuchipsCrunch.bmp	 47	 43	 0	 i	 2	 1	 833.13	 0.11	 0.16	 
bmem_snacks2_114	 0	 2	 04	 1	 4	 1.802011e+01	 ClickBlackWhite3.bmp	 Mentos.bmp	 22	 21	 0	 u	 4	 0	 865.95	 3.80	 3.84	 
bmem_snacks2_114	 0	 2	 04	 1	 5	 2.104022e+01	 Bounty.bmp	 BagaleShtuhim.bmp	 49	 44	 1	 i	 2	 0	 773.84	 0.11	 0.16	 
bmem_snacks2_114	 0	 2	 04	 1	 6	 2.601240e+01	 Egozi.bmp	 BagaleShtuhim.bmp	 46	 44	 1	 i	 2	 0	 945.65	 0.13	 0.16	 
bmem_snacks2_114	 0	 2	 04	 1	 7	 3.101805e+01	 ClickBalls5.bmp	 Dubonim.bmp	 18	 17	 0	 u	 1	 0	 939.99	 3.87	 3.89	 
bmem_snacks2_114	 0	 2	 04	 1	 8	 3.402147e+01	 DoritosGrill.bmp	 GumiSnakes3.bmp	 53	 51	 0	 i	 2	 1	 736.59	 0.09	 0.09	 
bmem_snacks2_114	 0	 2	 04	 1	 9	 3.800927e+01	 BisliGrill.bmp	 CrunchBisquitWhite2.bmp	 14	 7	 1	 i	 1	 0	 572.78	 4.84	 6.96	 
bmem_snacks2_114	 0	 2	 04	 1	 10	 4.101257e+01	 Popco.bmp	 BambaNugat.bmp	 39	 40	 0	 i	 5	 1	 745.51	 0.69	 0.18	 
bmem_snacks2_114	 0	 2	 04	 1	 11	 4.501702e+01	 ClickBlackWhite3.bmp	 Mentos.bmp	 22	 21	 0	 u	 4	 0	 853.03	 3.80	 3.84	 
bmem_snacks2_114	 0	 2	 04	 1	 12	 5.002278e+01	 Apropo.bmp	 KinderBuenoBrown3.bmp	 15	 11	 0	 i	 1	 1	 535.28	 4.78	 5.91	 
bmem_snacks2_114	 0	 2	 04	 1	 13	 5.300938e+01	 Keifli.bmp	 GumiSnakes3.bmp	 45	 51	 0	 i	 2	 1	 604.68	 0.13	 0.09	 
bmem_snacks2_114	 0	 2	 04	 1	 14	 5.601274e+01	 Bounty.bmp	 Tortit.bmp	 49	 50	 1	 x	 2	 999	 999000.00	 0.11	 0.11	 
bmem_snacks2_114	 0	 2	 04	 1	 15	 6.101834e+01	 Taami.bmp	 Cheetos.bmp	 48	 52	 1	 x	 2	 999	 999000.00	 0.11	 0.09	 
bmem_snacks2_114	 0	 2	 04	 1	 16	 6.901067e+01	 TapuchipsCrunch.bmp	 Cheetos.bmp	 43	 52	 1	 i	 2	 0	 795.39	 0.16	 0.09	 
bmem_snacks2_114	 0	 2	 04	 1	 17	 7.401631e+01	 ChocolateParaMilk3.bmp	 CrunchBisquitWhite2.bmp	 16	 7	 1	 i	 1	 0	 725.73	 3.98	 6.96	 
bmem_snacks2_114	 0	 2	 04	 1	 18	 8.200829e+01	 Twix.bmp	 ChocolateParaMilk3.bmp	 10	 16	 0	 u	 1	 0	 845.76	 5.96	 3.98	 
bmem_snacks2_114	 0	 2	 04	 1	 19	 8.601306e+01	 Bounty.bmp	 Cheetos.bmp	 49	 52	 1	 i	 2	 0	 664.98	 0.11	 0.09	 
bmem_snacks2_114	 0	 2	 04	 1	 20	 8.901648e+01	 HispusimShatiah.bmp	 BisliOnion.bmp	 47	 54	 0	 u	 2	 0	 749.57	 0.11	 0.09	 
bmem_snacks2_114	 0	 2	 04	 1	 21	 9.201985e+01	 Cheetos.bmp	 GumiSnakes3.bmp	 52	 51	 0	 i	 2	 1	 642.19	 0.09	 0.09	 
bmem_snacks2_114	 0	 2	 04	 1	 22	 9.502317e+01	 Apropo.bmp	 Dubonim.bmp	 15	 17	 0	 u	 1	 0	 1110.87	 4.78	 3.89	 
bmem_snacks2_114	 0	 2	 04	 1	 23	 9.901095e+01	 Keifli.bmp	 BisliOnion.bmp	 45	 54	 0	 x	 2	 999	 999000.00	 0.13	 0.09	 
bmem_snacks2_114	 0	 2	 04	 1	 24	 1.030155e+02	 DoritosSourSpicy.bmp	 ChocolateParaSucariotKoftzot2.bmp	 55	 5	 0	 i	 3	 1	 566.55	 0.09	 7.00	 
bmem_snacks2_114	 0	 2	 04	 1	 25	 1.090222e+02	 Twix.bmp	 Loacker.bmp	 10	 8	 0	 i	 1	 1	 623.80	 5.96	 6.00	 
bmem_snacks2_114	 0	 2	 04	 1	 26	 1.190168e+02	 BambaSweet.bmp	 ChocolateParaMarir2.bmp	 42	 41	 0	 u	 5	 0	 709.31	 0.16	 0.18	 
bmem_snacks2_114	 0	 2	 04	 1	 27	 1.220202e+02	 PesekZman.bmp	 Loacker.bmp	 13	 8	 0	 i	 1	 1	 601.88	 4.91	 6.00	 
bmem_snacks2_114	 0	 2	 04	 1	 28	 1.270091e+02	 Egozi.bmp	 DoritosGrill.bmp	 46	 53	 1	 u	 2	 1	 1052.91	 0.13	 0.09	 
bmem_snacks2_114	 0	 2	 04	 1	 29	 1.360191e+02	 ChocolateParaMilk3.bmp	 ClickBalls5.bmp	 16	 18	 1	 u	 1	 1	 762.91	 3.98	 3.87	 
bmem_snacks2_114	 0	 2	 04	 1	 30	 1.450126e+02	 Loacker.bmp	 CrunchBisquitWhite2.bmp	 8	 7	 1	 i	 1	 0	 785.41	 6.00	 6.96	 
bmem_snacks2_114	 0	 2	 04	 1	 31	 1.490171e+02	 ChocolateParaCookies5.bmp	 CrunchBisquitWhite2.bmp	 9	 7	 1	 i	 1	 0	 900.98	 5.98	 6.96	 
bmem_snacks2_114	 0	 2	 04	 1	 32	 1.570094e+02	 DoritosGrill.bmp	 BisliOnion.bmp	 53	 54	 0	 x	 2	 999	 999000.00	 0.09	 0.09	 
bmem_snacks2_114	 0	 2	 04	 1	 33	 1.640173e+02	 Taami.bmp	 HispusimShatiah.bmp	 48	 47	 1	 u	 2	 1	 892.73	 0.11	 0.11	 
bmem_snacks2_114	 0	 2	 04	 1	 34	 1.670206e+02	 KinderJoy.bmp	 Snickers.bmp	 56	 6	 0	 i	 3	 1	 553.44	 0.09	 7.00	 
bmem_snacks2_114	 0	 2	 04	 1	 35	 1.700240e+02	 Apropo.bmp	 ChocolateParaCookies5.bmp	 15	 9	 0	 i	 1	 1	 550.02	 4.78	 5.98	 
bmem_snacks2_114	 0	 2	 04	 1	 36	 1.760140e+02	 Taami.bmp	 BagaleShtuhim.bmp	 48	 44	 1	 i	 2	 0	 880.05	 0.11	 0.16	 
bmem_snacks2_114	 0	 2	 04	 1	 37	 1.810196e+02	 Keifli.bmp	 TapuchipsCrunch.bmp	 45	 43	 0	 x	 2	 999	 999000.00	 0.13	 0.16	 
bmem_snacks2_114	 0	 2	 04	 1	 38	 1.850072e+02	 Bounty.bmp	 HispusimShatiah.bmp	 49	 47	 1	 i	 2	 0	 1134.93	 0.11	 0.11	 
bmem_snacks2_114	 0	 2	 04	 1	 39	 1.900131e+02	 Hit.bmp	 ChocolateParaCookies5.bmp	 12	 9	 0	 u	 1	 0	 992.96	 5.87	 5.98	 
bmem_snacks2_114	 0	 2	 04	 1	 40	 1.930165e+02	 DoritosGrill.bmp	 Bounty.bmp	 53	 49	 0	 x	 2	 999	 999000.00	 0.09	 0.11	 
bmem_snacks2_114	 0	 2	 04	 1	 41	 1.960199e+02	 Egozi.bmp	 HispusimShatiah.bmp	 46	 47	 1	 u	 2	 1	 858.17	 0.13	 0.11	 
bmem_snacks2_114	 0	 2	 04	 1	 42	 2.040121e+02	 Bamba.bmp	 ClickXLwhite4.bmp	 20	 19	 1	 i	 4	 0	 633.92	 3.84	 3.84	 
bmem_snacks2_114	 0	 2	 04	 1	 43	 2.090178e+02	 Loacker.bmp	 Hit.bmp	 8	 12	 1	 i	 1	 0	 676.28	 6.00	 5.87	 
bmem_snacks2_114	 0	 2	 04	 1	 44	 2.130222e+02	 Popco.bmp	 BambaNugat.bmp	 39	 40	 0	 i	 5	 1	 639.83	 0.69	 0.18	 
bmem_snacks2_114	 0	 2	 04	 1	 45	 2.160087e+02	 TapuchipsCrunch.bmp	 BagaleShtuhim.bmp	 43	 44	 1	 i	 2	 0	 749.38	 0.16	 0.16	 
bmem_snacks2_114	 0	 2	 04	 1	 46	 2.190123e+02	 BagaleShtuhim.bmp	 GumiSnakes3.bmp	 44	 51	 0	 i	 2	 1	 857.71	 0.16	 0.09	 
bmem_snacks2_114	 0	 2	 04	 1	 47	 2.230167e+02	 Twix.bmp	 Dubonim.bmp	 10	 17	 0	 u	 1	 0	 645.31	 5.96	 3.89	 
bmem_snacks2_114	 0	 2	 04	 1	 48	 2.260202e+02	 ChocolateParaMilk3.bmp	 Apropo.bmp	 16	 15	 1	 u	 1	 1	 929.86	 3.98	 4.78	 
bmem_snacks2_114	 0	 2	 04	 1	 49	 2.310091e+02	 Keifli.bmp	 Egozi.bmp	 45	 46	 0	 i	 2	 1	 1044.94	 0.13	 0.13	 
bmem_snacks2_114	 0	 2	 04	 1	 50	 2.340124e+02	 BambaSweet.bmp	 ChocolateParaMarir2.bmp	 42	 41	 0	 x	 5	 999	 999000.00	 0.16	 0.18	 
bmem_snacks2_114	 0	 2	 04	 1	 51	 2.370158e+02	 Twix.bmp	 KinderBuenoBrown3.bmp	 10	 11	 0	 i	 1	 1	 1118.22	 5.96	 5.91	 
bmem_snacks2_114	 0	 2	 04	 1	 52	 2.410203e+02	 TapuchipsCrunch.bmp	 DoritosGrill.bmp	 43	 53	 1	 u	 2	 1	 1009.77	 0.16	 0.09	 
bmem_snacks2_114	 0	 2	 04	 1	 53	 2.440237e+02	 Hit.bmp	 BisliGrill.bmp	 12	 14	 0	 u	 1	 0	 710.37	 5.87	 4.84	 
bmem_snacks2_114	 0	 2	 04	 1	 54	 2.470104e+02	 ChocolateParaMilk3.bmp	 PesekZman.bmp	 16	 13	 1	 u	 1	 1	 707.70	 3.98	 4.91	 
bmem_snacks2_114	 0	 2	 04	 1	 55	 2.510149e+02	 BisliGrill.bmp	 ClickBalls5.bmp	 14	 18	 1	 i	 1	 0	 839.16	 4.84	 3.87	 
bmem_snacks2_114	 0	 2	 04	 1	 56	 2.640127e+02	 BisliGrill.bmp	 PesekZman.bmp	 14	 13	 1	 i	 1	 0	 737.32	 4.84	 4.91	 
bmem_snacks2_114	 0	 2	 04	 1	 57	 2.680173e+02	 Apropo.bmp	 BisliGrill.bmp	 15	 14	 0	 u	 1	 0	 964.74	 4.78	 4.84	 
bmem_snacks2_114	 0	 2	 04	 1	 58	 2.720217e+02	 KinderBuenoBrown3.bmp	 PesekZman.bmp	 11	 13	 1	 u	 1	 1	 696.36	 5.91	 4.91	 
bmem_snacks2_114	 0	 2	 04	 1	 59	 2.760096e+02	 Dubonim.bmp	 Hit.bmp	 17	 12	 1	 i	 1	 0	 580.44	 3.89	 5.87	 
bmem_snacks2_114	 0	 2	 04	 1	 60	 2.850196e+02	 ClickXLwhite4.bmp	 Bamba.bmp	 19	 20	 0	 u	 4	 0	 682.42	 3.84	 3.84	 
bmem_snacks2_114	 0	 2	 04	 1	 61	 2.890072e+02	 Dubonim.bmp	 PesekZman.bmp	 17	 13	 1	 i	 1	 0	 710.86	 3.89	 4.91	 
bmem_snacks2_114	 0	 2	 04	 1	 62	 2.920108e+02	 PesekZman.bmp	 ChocolateParaCookies5.bmp	 13	 9	 0	 i	 1	 1	 755.26	 4.91	 5.98	 
bmem_snacks2_114	 0	 2	 04	 1	 63	 2.960153e+02	 Egozi.bmp	 Cheetos.bmp	 46	 52	 1	 u	 2	 1	 1302.80	 0.13	 0.09	 
bmem_snacks2_114	 0	 2	 04	 1	 64	 3.010209e+02	 Tortit.bmp	 GumiSnakes3.bmp	 50	 51	 0	 i	 2	 1	 673.18	 0.11	 0.09	 
bmem_snacks2_114	 0	 2	 04	 1	 65	 3.060099e+02	 Taami.bmp	 DoritosGrill.bmp	 48	 53	 1	 u	 2	 1	 1220.19	 0.11	 0.09	 
bmem_snacks2_114	 0	 2	 04	 1	 66	 3.140188e+02	 Keifli.bmp	 Taami.bmp	 45	 48	 0	 i	 2	 1	 1107.23	 0.13	 0.11	 
bmem_snacks2_114	 0	 2	 04	 1	 67	 3.170222e+02	 Apropo.bmp	 Loacker.bmp	 15	 8	 0	 i	 1	 1	 671.86	 4.78	 6.00	 
bmem_snacks2_114	 0	 2	 04	 1	 68	 3.200086e+02	 ClickBalls5.bmp	 Loacker.bmp	 18	 8	 0	 i	 1	 1	 525.45	 3.87	 6.00	 
bmem_snacks2_114	 0	 2	 04	 1	 69	 3.280179e+02	 Twix.bmp	 ChocolateParaCookies5.bmp	 10	 9	 0	 i	 1	 1	 820.18	 5.96	 5.98	 
bmem_snacks2_114	 0	 2	 04	 1	 70	 3.310213e+02	 CrunchBisquitWhite2.bmp	 KinderBuenoBrown3.bmp	 7	 11	 0	 i	 1	 1	 920.79	 6.96	 5.91	 
bmem_snacks2_114	 0	 2	 04	 1	 71	 3.440192e+02	 BisliOnion.bmp	 Tortit.bmp	 54	 50	 1	 i	 2	 0	 1370.91	 0.09	 0.11	 
bmem_snacks2_114	 0	 2	 04	 1	 72	 3.510105e+02	 ChocolateParaCookies5.bmp	 ClickBalls5.bmp	 9	 18	 1	 u	 1	 1	 651.57	 5.98	 3.87	 
bmem_snacks2_114	 0	 2	 04	 1	 73	 3.560160e+02	 BisliGrill.bmp	 Twix.bmp	 14	 10	 1	 i	 1	 0	 606.06	 4.84	 5.96	 
bmem_snacks2_114	 0	 2	 04	 1	 74	 3.600204e+02	 Keifli.bmp	 Bounty.bmp	 45	 49	 0	 x	 2	 999	 999000.00	 0.13	 0.11	 
bmem_snacks2_114	 0	 2	 04	 1	 75	 3.640084e+02	 KinderBuenoBrown3.bmp	 Hit.bmp	 11	 12	 1	 i	 1	 0	 637.69	 5.91	 5.87	 
bmem_snacks2_114	 0	 2	 04	 1	 76	 3.710161e+02	 Dubonim.bmp	 CrunchBisquitWhite2.bmp	 17	 7	 1	 i	 1	 0	 733.98	 3.89	 6.96	 
bmem_snacks2_114	 0	 2	 04	 1	 77	 3.780239e+02	 Egozi.bmp	 Tortit.bmp	 46	 50	 1	 u	 2	 1	 1174.13	 0.13	 0.11	 
bmem_snacks2_114	 0	 2	 04	 1	 78	 3.820117e+02	 Hit.bmp	 ChocolateParaMilk3.bmp	 12	 16	 0	 u	 1	 0	 826.33	 5.87	 3.98	 
bmem_snacks2_114	 0	 2	 04	 1	 79	 3.860163e+02	 GumiSnakes3.bmp	 HispusimShatiah.bmp	 51	 47	 1	 u	 2	 1	 741.72	 0.09	 0.11	 
bmem_snacks2_114	 0	 2	 04	 1	 80	 3.950097e+02	 Snickers.bmp	 DoritosSourSpicy.bmp	 6	 55	 1	 u	 3	 1	 620.30	 7.00	 0.09	 
bmem_snacks2_114	 0	 2	 04	 1	 81	 3.990142e+02	 Taami.bmp	 Tortit.bmp	 48	 50	 1	 u	 2	 1	 863.88	 0.11	 0.11	 
bmem_snacks2_114	 0	 2	 04	 1	 82	 4.090085e+02	 TapuchipsCrunch.bmp	 Tortit.bmp	 43	 50	 1	 u	 2	 1	 1197.54	 0.16	 0.11	 
bmem_snacks2_114	 0	 2	 04	 1	 83	 4.130132e+02	 ClickBalls5.bmp	 KinderBuenoBrown3.bmp	 18	 11	 0	 i	 1	 1	 632.81	 3.87	 5.91	 
bmem_snacks2_114	 0	 2	 04	 1	 84	 4.180188e+02	 ChocolateParaSucariotKoftzot2.bmp	 KinderJoy.bmp	 5	 56	 1	 u	 3	 1	 667.26	 7.00	 0.09	 
