subjectID	scanner	order	block	run	trial	onsettime	ImageLeft	ImageRight	bidIndexLeft	bidIndexRight	IsleftGo	Response	PairType	Outcome	RT	bidLeft	bidRight	
bmem_snacks2_115	 0	 1	 03	 1	 1	 2.035227e+00	 KashitSour.bmp	 SkittlesFruits2.bmp	 51	 52	 0	 i	 2	 1	 911.31	 3.80	 3.78	 
bmem_snacks2_115	 0	 1	 03	 1	 2	 5.038623e+00	 BambaSweet.bmp	 Dubonim.bmp	 40	 39	 0	 u	 5	 0	 1027.89	 4.44	 4.47	 
bmem_snacks2_115	 0	 1	 03	 1	 3	 1.002752e+01	 BisliOnion.bmp	 BagaleShtuhim.bmp	 47	 48	 1	 u	 2	 1	 1159.00	 4.31	 4.31	 
bmem_snacks2_115	 0	 1	 03	 1	 4	 1.303096e+01	 BambaSweet.bmp	 Dubonim.bmp	 40	 39	 0	 u	 5	 0	 1019.56	 4.44	 4.47	 
bmem_snacks2_115	 0	 1	 03	 1	 5	 1.603427e+01	 Taami.bmp	 Twist.bmp	 45	 54	 1	 u	 2	 1	 1072.24	 4.36	 3.31	 
bmem_snacks2_115	 0	 1	 03	 1	 6	 2.103989e+01	 Hit.bmp	 WerthersOriginal.bmp	 16	 15	 0	 u	 1	 0	 1258.63	 5.84	 5.87	 
bmem_snacks2_115	 0	 1	 03	 1	 7	 2.502772e+01	 Twist.bmp	 SkittlesFruits2.bmp	 54	 52	 0	 i	 2	 1	 662.79	 3.31	 3.78	 
bmem_snacks2_115	 0	 1	 03	 1	 8	 3.003339e+01	 KinderBuenoBrown3.bmp	 WerthersOriginal.bmp	 14	 15	 0	 u	 1	 0	 833.12	 5.89	 5.87	 
bmem_snacks2_115	 0	 1	 03	 1	 9	 3.604009e+01	 PesekZman.bmp	 BisliOnion.bmp	 49	 47	 0	 i	 2	 1	 922.43	 3.82	 4.31	 
bmem_snacks2_115	 0	 1	 03	 1	 10	 4.102899e+01	 Kitkat.bmp	 KinderBuenoWhite2.bmp	 13	 8	 1	 i	 1	 0	 1349.52	 5.91	 6.27	 
bmem_snacks2_115	 0	 1	 03	 1	 11	 4.903805e+01	 Mars.bmp	 Tictac.bmp	 43	 44	 0	 u	 2	 0	 1180.46	 4.38	 4.38	 
bmem_snacks2_115	 0	 1	 03	 1	 12	 5.302558e+01	 BambaNugat.bmp	 GumiSnakes3.bmp	 7	 11	 1	 u	 1	 1	 1040.94	 6.40	 5.91	 
bmem_snacks2_115	 0	 1	 03	 1	 13	 5.703034e+01	 KinderJoy.bmp	 Mentos.bmp	 12	 17	 1	 u	 1	 1	 972.19	 5.91	 5.49	 
bmem_snacks2_115	 0	 1	 03	 1	 14	 6.403819e+01	 WerthersOriginal.bmp	 ChocolateParaMilk3.bmp	 15	 9	 1	 i	 1	 0	 892.34	 5.87	 6.07	 
bmem_snacks2_115	 0	 1	 03	 1	 15	 6.702462e+01	 Mars.bmp	 Taami.bmp	 43	 45	 0	 u	 2	 0	 897.90	 4.38	 4.36	 
bmem_snacks2_115	 0	 1	 03	 1	 16	 7.002819e+01	 ChocolateParaMilk3.bmp	 BambaNugat.bmp	 9	 7	 0	 i	 1	 1	 894.32	 6.07	 6.40	 
bmem_snacks2_115	 0	 1	 03	 1	 17	 8.104063e+01	 Tictac.bmp	 PesekZman.bmp	 44	 49	 1	 u	 2	 1	 1129.89	 4.38	 3.82	 
bmem_snacks2_115	 0	 1	 03	 1	 18	 9.303736e+01	 Hit.bmp	 Popco.bmp	 16	 18	 0	 i	 1	 1	 965.14	 5.84	 5.42	 
bmem_snacks2_115	 0	 1	 03	 1	 19	 9.802605e+01	 Snickers.bmp	 Tapuchips.bmp	 42	 41	 1	 u	 5	 1	 816.46	 4.38	 4.42	 
bmem_snacks2_115	 0	 1	 03	 1	 20	 1.010297e+02	 Mars.bmp	 SkittlesSour4.bmp	 43	 50	 0	 i	 2	 1	 1332.85	 4.38	 3.82	 
bmem_snacks2_115	 0	 1	 03	 1	 21	 1.080376e+02	 ChocolateParaSucariotKoftzot2.bmp	 KinderBuenoWhite2.bmp	 10	 8	 1	 u	 1	 1	 1316.97	 5.98	 6.27	 
bmem_snacks2_115	 0	 1	 03	 1	 22	 1.130266e+02	 SkittlesFruits2.bmp	 DoritosNatural.bmp	 52	 46	 1	 u	 2	 1	 775.95	 3.78	 4.33	 
bmem_snacks2_115	 0	 1	 03	 1	 23	 1.160299e+02	 ChocolateParaSucariotKoftzot2.bmp	 KinderBuenoBrown3.bmp	 10	 14	 1	 u	 1	 1	 868.58	 5.98	 5.89	 
bmem_snacks2_115	 0	 1	 03	 1	 24	 1.230378e+02	 KashitSour.bmp	 BisliOnion.bmp	 51	 47	 0	 i	 2	 1	 788.76	 3.80	 4.31	 
bmem_snacks2_115	 0	 1	 03	 1	 25	 1.270252e+02	 PesekZman.bmp	 Taami.bmp	 49	 45	 0	 x	 2	 999	 999000.00	 3.82	 4.36	 
bmem_snacks2_115	 0	 1	 03	 1	 26	 1.300289e+02	 DoritosGrill.bmp	 BisliGrill.bmp	 22	 21	 1	 i	 4	 0	 1029.64	 4.89	 5.36	 
bmem_snacks2_115	 0	 1	 03	 1	 27	 1.340335e+02	 ClickBalls5.bmp	 TapuchipsCrunch.bmp	 19	 20	 1	 u	 4	 1	 1009.08	 5.42	 5.38	 
bmem_snacks2_115	 0	 1	 03	 1	 28	 1.400402e+02	 SkittlesSour4.bmp	 DoritosNatural.bmp	 50	 46	 1	 u	 2	 1	 706.37	 3.82	 4.33	 
bmem_snacks2_115	 0	 1	 03	 1	 29	 1.430268e+02	 BambaNugat.bmp	 Mentos.bmp	 7	 17	 1	 u	 1	 1	 607.70	 6.40	 5.49	 
bmem_snacks2_115	 0	 1	 03	 1	 30	 1.500347e+02	 ChocolateParaSucariotKoftzot2.bmp	 GumiSnakes3.bmp	 10	 11	 1	 u	 1	 1	 687.81	 5.98	 5.91	 
bmem_snacks2_115	 0	 1	 03	 1	 31	 1.640338e+02	 Tictac.bmp	 DoritosNatural.bmp	 44	 46	 1	 u	 2	 1	 928.70	 4.38	 4.33	 
bmem_snacks2_115	 0	 1	 03	 1	 32	 1.680383e+02	 Popco.bmp	 Mentos.bmp	 18	 17	 1	 u	 1	 1	 812.24	 5.42	 5.49	 
bmem_snacks2_115	 0	 1	 03	 1	 33	 1.810361e+02	 KinderJoy.bmp	 KinderBuenoBrown3.bmp	 12	 14	 1	 u	 1	 1	 638.40	 5.91	 5.89	 
bmem_snacks2_115	 0	 1	 03	 1	 34	 1.870263e+02	 Tictac.bmp	 Twist.bmp	 44	 54	 1	 u	 2	 1	 680.24	 4.38	 3.31	 
bmem_snacks2_115	 0	 1	 03	 1	 35	 1.900297e+02	 Twist.bmp	 Egozi.bmp	 54	 53	 0	 i	 2	 1	 1124.84	 3.31	 3.78	 
bmem_snacks2_115	 0	 1	 03	 1	 36	 1.950352e+02	 BagaleShtuhim.bmp	 Egozi.bmp	 48	 53	 0	 u	 2	 0	 1103.29	 4.31	 3.78	 
bmem_snacks2_115	 0	 1	 03	 1	 37	 1.980386e+02	 PesekZman.bmp	 Egozi.bmp	 49	 53	 0	 i	 2	 1	 1339.89	 3.82	 3.78	 
bmem_snacks2_115	 0	 1	 03	 1	 38	 2.030276e+02	 Popco.bmp	 KinderBuenoBrown3.bmp	 18	 14	 1	 u	 1	 1	 550.97	 5.42	 5.89	 
bmem_snacks2_115	 0	 1	 03	 1	 39	 2.120377e+02	 Kitkat.bmp	 ChocolateParaMilk3.bmp	 13	 9	 1	 u	 1	 1	 1028.85	 5.91	 6.07	 
bmem_snacks2_115	 0	 1	 03	 1	 40	 2.160252e+02	 Egozi.bmp	 Mars.bmp	 53	 43	 1	 i	 2	 0	 777.35	 3.78	 4.38	 
bmem_snacks2_115	 0	 1	 03	 1	 41	 2.220322e+02	 ChocolateParaSucariotKoftzot2.bmp	 ChocolateParaMilk3.bmp	 10	 9	 1	 u	 1	 1	 674.29	 5.98	 6.07	 
bmem_snacks2_115	 0	 1	 03	 1	 42	 2.250356e+02	 Tictac.bmp	 BagaleShtuhim.bmp	 44	 48	 1	 u	 2	 1	 582.90	 4.38	 4.31	 
bmem_snacks2_115	 0	 1	 03	 1	 43	 2.310253e+02	 Kitkat.bmp	 GumiSnakes3.bmp	 13	 11	 1	 u	 1	 1	 825.24	 5.91	 5.91	 
bmem_snacks2_115	 0	 1	 03	 1	 44	 2.350301e+02	 Popco.bmp	 ChocolateParaMilk3.bmp	 18	 9	 1	 u	 1	 1	 708.46	 5.42	 6.07	 
bmem_snacks2_115	 0	 1	 03	 1	 45	 2.410368e+02	 SkittlesFruits2.bmp	 Mars.bmp	 52	 43	 1	 u	 2	 1	 605.68	 3.78	 4.38	 
bmem_snacks2_115	 0	 1	 03	 1	 46	 2.440403e+02	 DoritosNatural.bmp	 Taami.bmp	 46	 45	 0	 u	 2	 0	 1154.24	 4.33	 4.36	 
bmem_snacks2_115	 0	 1	 03	 1	 47	 2.470269e+02	 BagaleShtuhim.bmp	 Taami.bmp	 48	 45	 0	 u	 2	 0	 1239.62	 4.31	 4.36	 
bmem_snacks2_115	 0	 1	 03	 1	 48	 2.510314e+02	 PesekZman.bmp	 SkittlesSour4.bmp	 49	 50	 0	 i	 2	 1	 571.10	 3.82	 3.82	 
bmem_snacks2_115	 0	 1	 03	 1	 49	 2.590404e+02	 GumiSnakes3.bmp	 WerthersOriginal.bmp	 11	 15	 0	 u	 1	 0	 1114.10	 5.91	 5.87	 
bmem_snacks2_115	 0	 1	 03	 1	 50	 2.630282e+02	 Twist.bmp	 SkittlesSour4.bmp	 54	 50	 0	 i	 2	 1	 534.34	 3.31	 3.82	 
bmem_snacks2_115	 0	 1	 03	 1	 51	 2.660315e+02	 KinderBuenoWhite2.bmp	 KinderJoy.bmp	 8	 12	 0	 i	 1	 1	 563.01	 6.27	 5.91	 
bmem_snacks2_115	 0	 1	 03	 1	 52	 2.690350e+02	 Egozi.bmp	 DoritosNatural.bmp	 53	 46	 1	 i	 2	 0	 1023.55	 3.78	 4.33	 
bmem_snacks2_115	 0	 1	 03	 1	 53	 2.750417e+02	 DoritosNatural.bmp	 BisliOnion.bmp	 46	 47	 0	 i	 2	 1	 832.81	 4.33	 4.31	 
bmem_snacks2_115	 0	 1	 03	 1	 54	 2.790294e+02	 TapuchipsCrunch.bmp	 ClickBalls5.bmp	 20	 19	 0	 i	 4	 1	 677.09	 5.38	 5.42	 
bmem_snacks2_115	 0	 1	 03	 1	 55	 2.820329e+02	 KashitSour.bmp	 Tictac.bmp	 51	 44	 0	 i	 2	 1	 561.65	 3.80	 4.38	 
bmem_snacks2_115	 0	 1	 03	 1	 56	 2.870385e+02	 Kitkat.bmp	 Hit.bmp	 13	 16	 1	 i	 1	 0	 1212.06	 5.91	 5.84	 
bmem_snacks2_115	 0	 1	 03	 1	 57	 2.910260e+02	 Mentos.bmp	 WerthersOriginal.bmp	 17	 15	 0	 u	 1	 0	 840.52	 5.49	 5.87	 
bmem_snacks2_115	 0	 1	 03	 1	 58	 3.000364e+02	 Mentos.bmp	 ChocolateParaSucariotKoftzot2.bmp	 17	 10	 0	 i	 1	 1	 998.10	 5.49	 5.98	 
bmem_snacks2_115	 0	 1	 03	 1	 59	 3.050251e+02	 ChocolateParaCookies5.bmp	 Tortit.bmp	 5	 55	 1	 u	 3	 1	 849.47	 7.02	 3.22	 
bmem_snacks2_115	 0	 1	 03	 1	 60	 3.080287e+02	 Snickers.bmp	 Tapuchips.bmp	 42	 41	 1	 u	 5	 1	 749.83	 4.38	 4.42	 
bmem_snacks2_115	 0	 1	 03	 1	 61	 3.130343e+02	 SkittlesFruits2.bmp	 BagaleShtuhim.bmp	 52	 48	 1	 u	 2	 1	 664.28	 3.78	 4.31	 
bmem_snacks2_115	 0	 1	 03	 1	 62	 3.210267e+02	 BisliOnion.bmp	 Mars.bmp	 47	 43	 1	 u	 2	 1	 695.83	 4.31	 4.38	 
bmem_snacks2_115	 0	 1	 03	 1	 63	 3.240300e+02	 Mekupelet.bmp	 Cheetos.bmp	 56	 6	 0	 i	 3	 1	 804.50	 2.76	 6.62	 
bmem_snacks2_115	 0	 1	 03	 1	 64	 3.270334e+02	 KashitSour.bmp	 Egozi.bmp	 51	 53	 0	 u	 2	 0	 881.14	 3.80	 3.78	 
bmem_snacks2_115	 0	 1	 03	 1	 65	 3.300367e+02	 Mekupelet.bmp	 ChocolateParaCookies5.bmp	 56	 5	 0	 i	 3	 1	 565.85	 2.76	 7.02	 
bmem_snacks2_115	 0	 1	 03	 1	 66	 3.350254e+02	 BagaleShtuhim.bmp	 SkittlesSour4.bmp	 48	 50	 0	 i	 2	 1	 537.12	 4.31	 3.82	 
bmem_snacks2_115	 0	 1	 03	 1	 67	 3.400313e+02	 DoritosGrill.bmp	 BisliGrill.bmp	 22	 21	 1	 i	 4	 0	 875.21	 4.89	 5.36	 
bmem_snacks2_115	 0	 1	 03	 1	 68	 3.430513e+02	 Popco.bmp	 KinderBuenoWhite2.bmp	 18	 8	 1	 u	 1	 1	 583.23	 5.42	 6.27	 
bmem_snacks2_115	 0	 1	 03	 1	 69	 3.490414e+02	 WerthersOriginal.bmp	 KinderBuenoWhite2.bmp	 15	 8	 1	 i	 1	 0	 961.11	 5.87	 6.27	 
bmem_snacks2_115	 0	 1	 03	 1	 70	 3.530292e+02	 KashitSour.bmp	 SkittlesSour4.bmp	 51	 50	 0	 i	 2	 1	 509.32	 3.80	 3.82	 
bmem_snacks2_115	 0	 1	 03	 1	 71	 3.560325e+02	 BisliOnion.bmp	 Twist.bmp	 47	 54	 1	 u	 2	 1	 665.99	 4.31	 3.31	 
bmem_snacks2_115	 0	 1	 03	 1	 72	 3.670282e+02	 PesekZman.bmp	 SkittlesFruits2.bmp	 49	 52	 0	 i	 2	 1	 558.30	 3.82	 3.78	 
bmem_snacks2_115	 0	 1	 03	 1	 73	 3.730349e+02	 Tortit.bmp	 Cheetos.bmp	 55	 6	 0	 i	 3	 1	 679.59	 3.22	 6.62	 
bmem_snacks2_115	 0	 1	 03	 1	 74	 3.780405e+02	 BambaNugat.bmp	 KinderBuenoWhite2.bmp	 7	 8	 1	 u	 1	 1	 569.98	 6.40	 6.27	 
bmem_snacks2_115	 0	 1	 03	 1	 75	 3.810272e+02	 Hit.bmp	 ChocolateParaSucariotKoftzot2.bmp	 16	 10	 0	 i	 1	 1	 815.27	 5.84	 5.98	 
bmem_snacks2_115	 0	 1	 03	 1	 76	 3.850318e+02	 Popco.bmp	 GumiSnakes3.bmp	 18	 11	 1	 u	 1	 1	 666.72	 5.42	 5.91	 
bmem_snacks2_115	 0	 1	 03	 1	 77	 3.910385e+02	 KashitSour.bmp	 Taami.bmp	 51	 45	 0	 u	 2	 0	 1068.05	 3.80	 4.36	 
bmem_snacks2_115	 0	 1	 03	 1	 78	 3.950260e+02	 ChocolateParaMilk3.bmp	 KinderJoy.bmp	 9	 12	 0	 i	 1	 1	 760.53	 6.07	 5.91	 
bmem_snacks2_115	 0	 1	 03	 1	 79	 3.980297e+02	 KinderJoy.bmp	 Hit.bmp	 12	 16	 1	 u	 1	 1	 572.81	 5.91	 5.84	 
bmem_snacks2_115	 0	 1	 03	 1	 80	 4.010331e+02	 KinderBuenoBrown3.bmp	 Kitkat.bmp	 14	 13	 0	 i	 1	 1	 1273.45	 5.89	 5.91	 
bmem_snacks2_115	 0	 1	 03	 1	 81	 4.050375e+02	 KinderBuenoBrown3.bmp	 BambaNugat.bmp	 14	 7	 0	 i	 1	 1	 613.01	 5.89	 6.40	 
bmem_snacks2_115	 0	 1	 03	 1	 82	 4.110276e+02	 GumiSnakes3.bmp	 KinderJoy.bmp	 11	 12	 0	 i	 1	 1	 638.88	 5.91	 5.91	 
bmem_snacks2_115	 0	 1	 03	 1	 83	 4.140309e+02	 Mentos.bmp	 Kitkat.bmp	 17	 13	 0	 i	 1	 1	 1291.58	 5.49	 5.91	 
bmem_snacks2_115	 0	 1	 03	 1	 84	 4.180354e+02	 BambaNugat.bmp	 Hit.bmp	 7	 16	 1	 u	 1	 1	 631.10	 6.40	 5.84	 
