subjectID	scanner	order	block	run	trial	onsettime	ImageLeft	ImageRight	bidIndexLeft	bidIndexRight	IsleftGo	Response	PairType	Outcome	RT	bidLeft	bidRight	
bmem_snacks2_128	 0	 2	 04	 1	 1	 2.018868e+00	 Twist.bmp	 BisliOnion.bmp	 45	 54	 0	 i	 2	 1	 917.68	 1.53	 0.82	 
bmem_snacks2_128	 0	 2	 04	 1	 2	 8.008919e+00	 Loacker.bmp	 BisliGrill.bmp	 50	 49	 0	 u	 2	 0	 1103.63	 1.40	 1.44	 
bmem_snacks2_128	 0	 2	 04	 1	 3	 1.101230e+01	 CrunchBisquitBrown3.bmp	 KinderBuenoWhite2.bmp	 22	 21	 0	 u	 4	 0	 1292.24	 3.73	 3.78	 
bmem_snacks2_128	 0	 2	 04	 1	 4	 1.802014e+01	 DoritosGrill.bmp	 Kitkat.bmp	 7	 11	 0	 i	 1	 1	 668.41	 5.07	 4.84	 
bmem_snacks2_128	 0	 2	 04	 1	 5	 2.100688e+01	 HispusimShatiah.bmp	 BisliOnion.bmp	 53	 54	 0	 i	 2	 1	 857.67	 0.84	 0.82	 
bmem_snacks2_128	 0	 2	 04	 1	 6	 2.601254e+01	 Kitkat.bmp	 Egozi.bmp	 11	 15	 1	 i	 1	 0	 1004.01	 4.84	 4.53	 
bmem_snacks2_128	 0	 2	 04	 1	 7	 3.101806e+01	 ClickBlackWhite3.bmp	 KinderBuenoBrown3.bmp	 13	 9	 0	 u	 1	 0	 798.49	 4.78	 4.89	 
bmem_snacks2_128	 0	 2	 04	 1	 8	 3.400484e+01	 HispusimShatiah.bmp	 BambaSweet.bmp	 53	 46	 0	 x	 2	 999	 999000.00	 0.84	 1.53	 
bmem_snacks2_128	 0	 2	 04	 1	 9	 3.800931e+01	 ClickBalls5.bmp	 DoritosSourSpicy.bmp	 17	 12	 1	 i	 1	 0	 783.23	 3.87	 4.82	 
bmem_snacks2_128	 0	 2	 04	 1	 10	 4.101260e+01	 KifkefMaklot2.bmp	 Hit.bmp	 40	 39	 1	 u	 5	 1	 811.95	 1.69	 1.69	 
bmem_snacks2_128	 0	 2	 04	 1	 11	 4.501719e+01	 GumiSnakes3.bmp	 BisliGrill.bmp	 44	 49	 0	 i	 2	 1	 815.36	 1.56	 1.44	 
bmem_snacks2_128	 0	 2	 04	 1	 12	 5.000612e+01	 DoritosSourSpicy.bmp	 Kitkat.bmp	 12	 11	 0	 i	 1	 1	 890.42	 4.82	 4.84	 
bmem_snacks2_128	 0	 2	 04	 1	 13	 5.300940e+01	 BambaSweet.bmp	 Twix.bmp	 46	 47	 1	 i	 2	 0	 1103.14	 1.53	 1.51	 
bmem_snacks2_128	 0	 2	 04	 1	 14	 5.601288e+01	 Keifli.bmp	 GumiSnakes3.bmp	 51	 44	 1	 i	 2	 0	 1299.67	 1.16	 1.56	 
bmem_snacks2_128	 0	 2	 04	 1	 15	 6.101843e+01	 KashitSour.bmp	 ChocolateParaMarir2.bmp	 56	 6	 0	 i	 3	 1	 710.10	 0.76	 5.78	 
bmem_snacks2_128	 0	 2	 04	 1	 16	 6.901072e+01	 BisliOnion.bmp	 Twix.bmp	 54	 47	 1	 i	 2	 0	 941.82	 0.82	 1.51	 
bmem_snacks2_128	 0	 2	 04	 1	 17	 7.401633e+01	 KinderBuenoWhite2.bmp	 CrunchBisquitBrown3.bmp	 21	 22	 1	 i	 4	 0	 920.22	 3.78	 3.73	 
bmem_snacks2_128	 0	 2	 04	 1	 18	 8.200870e+01	 ClickBalls5.bmp	 ClickXLbrown4.bmp	 17	 10	 1	 i	 1	 0	 703.84	 3.87	 4.87	 
bmem_snacks2_128	 0	 2	 04	 1	 19	 8.601313e+01	 DoritosSourSpicy.bmp	 Mekupelet.bmp	 12	 16	 0	 u	 1	 0	 1099.42	 4.82	 4.22	 
bmem_snacks2_128	 0	 2	 04	 1	 20	 8.901656e+01	 Shugi.bmp	 Egozi.bmp	 8	 15	 1	 i	 1	 0	 943.99	 4.96	 4.53	 
bmem_snacks2_128	 0	 2	 04	 1	 21	 9.201996e+01	 Smarties.bmp	 Twix.bmp	 48	 47	 1	 u	 2	 1	 796.58	 1.47	 1.51	 
bmem_snacks2_128	 0	 2	 04	 1	 22	 9.500660e+01	 KinderBuenoBrown3.bmp	 Egozi.bmp	 9	 15	 1	 i	 1	 0	 1097.95	 4.89	 4.53	 
bmem_snacks2_128	 0	 2	 04	 1	 23	 9.901107e+01	 ClickBlackWhite3.bmp	 ClickXLwhite4.bmp	 13	 14	 0	 u	 1	 0	 1037.47	 4.78	 4.76	 
bmem_snacks2_128	 0	 2	 04	 1	 24	 1.030156e+02	 Kitkat.bmp	 ClickBlackWhite3.bmp	 11	 13	 1	 i	 1	 0	 880.92	 4.84	 4.78	 
bmem_snacks2_128	 0	 2	 04	 1	 25	 1.090056e+02	 BisliOnion.bmp	 GumiSnakes3.bmp	 54	 44	 1	 u	 2	 1	 954.91	 0.82	 1.56	 
bmem_snacks2_128	 0	 2	 04	 1	 26	 1.190169e+02	 Keifli.bmp	 HispusimShatiah.bmp	 51	 53	 1	 u	 2	 1	 1199.68	 1.16	 0.84	 
bmem_snacks2_128	 0	 2	 04	 1	 27	 1.220035e+02	 SkittlesFruits2.bmp	 HispusimShatiah.bmp	 43	 53	 1	 u	 2	 1	 1325.04	 1.58	 0.84	 
bmem_snacks2_128	 0	 2	 04	 1	 28	 1.270092e+02	 CrunchBisquitWhite2.bmp	 DoritosNatural.bmp	 19	 20	 0	 u	 4	 0	 711.37	 3.82	 3.80	 
bmem_snacks2_128	 0	 2	 04	 1	 29	 1.360192e+02	 ChocolateParaSucariotKoftzot2.bmp	 KinderBuenoBrown3.bmp	 18	 9	 0	 u	 1	 0	 781.31	 3.82	 4.89	 
bmem_snacks2_128	 0	 2	 04	 1	 30	 1.450127e+02	 Mekupelet.bmp	 ClickXLbrown4.bmp	 16	 10	 1	 i	 1	 0	 1003.84	 4.22	 4.87	 
bmem_snacks2_128	 0	 2	 04	 1	 31	 1.490172e+02	 Shugi.bmp	 ClickXLbrown4.bmp	 8	 10	 1	 i	 1	 0	 1031.30	 4.96	 4.87	 
bmem_snacks2_128	 0	 2	 04	 1	 32	 1.570096e+02	 BisliPizza3.bmp	 BambaSweet.bmp	 52	 46	 0	 u	 2	 0	 1046.95	 0.89	 1.53	 
bmem_snacks2_128	 0	 2	 04	 1	 33	 1.640174e+02	 ClickBalls5.bmp	 ClickBlackWhite3.bmp	 17	 13	 1	 i	 1	 0	 1007.18	 3.87	 4.78	 
bmem_snacks2_128	 0	 2	 04	 1	 34	 1.670038e+02	 Shugi.bmp	 DoritosSourSpicy.bmp	 8	 12	 1	 i	 1	 0	 1100.74	 4.96	 4.82	 
bmem_snacks2_128	 0	 2	 04	 1	 35	 1.700074e+02	 Keifli.bmp	 Twix.bmp	 51	 47	 1	 i	 2	 0	 1009.11	 1.16	 1.51	 
bmem_snacks2_128	 0	 2	 04	 1	 36	 1.760142e+02	 ClickXLbrown4.bmp	 Kitkat.bmp	 10	 11	 0	 i	 1	 1	 1018.38	 4.87	 4.84	 
bmem_snacks2_128	 0	 2	 04	 1	 37	 1.810029e+02	 SkittlesFruits2.bmp	 BisliPizza3.bmp	 43	 52	 1	 u	 2	 1	 1325.70	 1.58	 0.89	 
bmem_snacks2_128	 0	 2	 04	 1	 38	 1.850077e+02	 Egozi.bmp	 ClickXLwhite4.bmp	 15	 14	 0	 i	 1	 1	 960.84	 4.53	 4.76	 
bmem_snacks2_128	 0	 2	 04	 1	 39	 1.900132e+02	 Smarties.bmp	 Twist.bmp	 48	 45	 1	 u	 2	 1	 899.36	 1.47	 1.53	 
bmem_snacks2_128	 0	 2	 04	 1	 40	 1.930167e+02	 Shugi.bmp	 ClickBlackWhite3.bmp	 8	 13	 1	 u	 1	 1	 1079.86	 4.96	 4.78	 
bmem_snacks2_128	 0	 2	 04	 1	 41	 1.960200e+02	 ClickBalls5.bmp	 Egozi.bmp	 17	 15	 1	 u	 1	 1	 1004.52	 3.87	 4.53	 
bmem_snacks2_128	 0	 2	 04	 1	 42	 2.040122e+02	 Hit.bmp	 KifkefMaklot2.bmp	 39	 40	 0	 i	 5	 1	 924.31	 1.69	 1.69	 
bmem_snacks2_128	 0	 2	 04	 1	 43	 2.090179e+02	 BambaNugat.bmp	 HappyHippo.bmp	 42	 41	 0	 i	 5	 1	 1310.60	 1.67	 1.69	 
bmem_snacks2_128	 0	 2	 04	 1	 44	 2.130058e+02	 ClickBalls5.bmp	 DoritosGrill.bmp	 17	 7	 1	 u	 1	 1	 1034.79	 3.87	 5.07	 
bmem_snacks2_128	 0	 2	 04	 1	 45	 2.160091e+02	 Twist.bmp	 Keifli.bmp	 45	 51	 0	 i	 2	 1	 1327.49	 1.53	 1.16	 
bmem_snacks2_128	 0	 2	 04	 1	 46	 2.190124e+02	 ChocolateParaSucariotKoftzot2.bmp	 ClickBalls5.bmp	 18	 17	 0	 i	 1	 1	 996.12	 3.82	 3.87	 
bmem_snacks2_128	 0	 2	 04	 1	 47	 2.230169e+02	 BisliGrill.bmp	 Twix.bmp	 49	 47	 1	 u	 2	 1	 951.63	 1.44	 1.51	 
bmem_snacks2_128	 0	 2	 04	 1	 48	 2.260034e+02	 Smarties.bmp	 HispusimShatiah.bmp	 48	 53	 1	 u	 2	 1	 797.16	 1.47	 0.84	 
bmem_snacks2_128	 0	 2	 04	 1	 49	 2.310092e+02	 SkittlesFruits2.bmp	 Twist.bmp	 43	 45	 1	 i	 2	 0	 1087.34	 1.58	 1.53	 
bmem_snacks2_128	 0	 2	 04	 1	 50	 2.340126e+02	 Twix.bmp	 SkittlesFruits2.bmp	 47	 43	 0	 u	 2	 0	 1083.93	 1.51	 1.58	 
bmem_snacks2_128	 0	 2	 04	 1	 51	 2.370160e+02	 GumiSnakes3.bmp	 BambaSweet.bmp	 44	 46	 0	 u	 2	 0	 1144.54	 1.56	 1.53	 
bmem_snacks2_128	 0	 2	 04	 1	 52	 2.410034e+02	 ChocolateParaSucariotKoftzot2.bmp	 Mekupelet.bmp	 18	 16	 0	 i	 1	 1	 877.10	 3.82	 4.22	 
bmem_snacks2_128	 0	 2	 04	 1	 53	 2.440071e+02	 Shugi.bmp	 DoritosGrill.bmp	 8	 7	 1	 u	 1	 1	 777.41	 4.96	 5.07	 
bmem_snacks2_128	 0	 2	 04	 1	 54	 2.470105e+02	 Apropo.bmp	 KashitSour.bmp	 5	 56	 1	 u	 3	 1	 862.05	 5.91	 0.76	 
bmem_snacks2_128	 0	 2	 04	 1	 55	 2.510150e+02	 HappyHippo.bmp	 BambaNugat.bmp	 41	 42	 1	 u	 5	 1	 1065.55	 1.69	 1.67	 
bmem_snacks2_128	 0	 2	 04	 1	 56	 2.640129e+02	 Taami.bmp	 ChocolateParaMarir2.bmp	 55	 6	 0	 i	 3	 1	 683.62	 0.76	 5.78	 
bmem_snacks2_128	 0	 2	 04	 1	 57	 2.680175e+02	 SkittlesFruits2.bmp	 Loacker.bmp	 43	 50	 1	 i	 2	 0	 759.04	 1.58	 1.40	 
bmem_snacks2_128	 0	 2	 04	 1	 58	 2.720054e+02	 Taami.bmp	 Apropo.bmp	 55	 5	 0	 i	 3	 1	 1075.15	 0.76	 5.91	 
bmem_snacks2_128	 0	 2	 04	 1	 59	 2.760098e+02	 ChocolateParaSucariotKoftzot2.bmp	 Shugi.bmp	 18	 8	 0	 i	 1	 1	 958.80	 3.82	 4.96	 
bmem_snacks2_128	 0	 2	 04	 1	 60	 2.850198e+02	 Loacker.bmp	 Smarties.bmp	 50	 48	 0	 i	 2	 1	 1020.73	 1.40	 1.47	 
bmem_snacks2_128	 0	 2	 04	 1	 61	 2.890076e+02	 ClickBlackWhite3.bmp	 Mekupelet.bmp	 13	 16	 0	 x	 1	 999	 999000.00	 4.78	 4.22	 
bmem_snacks2_128	 0	 2	 04	 1	 62	 2.920111e+02	 HispusimShatiah.bmp	 BisliGrill.bmp	 53	 49	 0	 i	 2	 1	 869.49	 0.84	 1.44	 
bmem_snacks2_128	 0	 2	 04	 1	 63	 2.960155e+02	 DoritosSourSpicy.bmp	 KinderBuenoBrown3.bmp	 12	 9	 0	 u	 1	 0	 769.08	 4.82	 4.89	 
bmem_snacks2_128	 0	 2	 04	 1	 64	 3.010045e+02	 Keifli.bmp	 Loacker.bmp	 51	 50	 1	 i	 2	 0	 931.99	 1.16	 1.40	 
bmem_snacks2_128	 0	 2	 04	 1	 65	 3.060101e+02	 BisliPizza3.bmp	 BisliOnion.bmp	 52	 54	 0	 i	 2	 1	 982.48	 0.89	 0.82	 
bmem_snacks2_128	 0	 2	 04	 1	 66	 3.140191e+02	 Mekupelet.bmp	 DoritosGrill.bmp	 16	 7	 1	 u	 1	 1	 1189.45	 4.22	 5.07	 
bmem_snacks2_128	 0	 2	 04	 1	 67	 3.170058e+02	 BambaSweet.bmp	 Twist.bmp	 46	 45	 1	 i	 2	 0	 1138.76	 1.53	 1.53	 
bmem_snacks2_128	 0	 2	 04	 1	 68	 3.200091e+02	 GumiSnakes3.bmp	 Smarties.bmp	 44	 48	 0	 i	 2	 1	 999.48	 1.56	 1.47	 
bmem_snacks2_128	 0	 2	 04	 1	 69	 3.280181e+02	 ChocolateParaSucariotKoftzot2.bmp	 Kitkat.bmp	 18	 11	 0	 i	 1	 1	 702.40	 3.82	 4.84	 
bmem_snacks2_128	 0	 2	 04	 1	 70	 3.310049e+02	 Loacker.bmp	 BambaSweet.bmp	 50	 46	 0	 u	 2	 0	 931.70	 1.40	 1.53	 
bmem_snacks2_128	 0	 2	 04	 1	 71	 3.440195e+02	 ClickXLbrown4.bmp	 ClickXLwhite4.bmp	 10	 14	 0	 u	 1	 0	 949.08	 4.87	 4.76	 
bmem_snacks2_128	 0	 2	 04	 1	 72	 3.510106e+02	 DoritosNatural.bmp	 CrunchBisquitWhite2.bmp	 20	 19	 1	 i	 4	 0	 917.97	 3.80	 3.82	 
bmem_snacks2_128	 0	 2	 04	 1	 73	 3.560162e+02	 DoritosGrill.bmp	 ClickXLwhite4.bmp	 7	 14	 0	 i	 1	 1	 720.32	 5.07	 4.76	 
bmem_snacks2_128	 0	 2	 04	 1	 74	 3.600037e+02	 ChocolateParaSucariotKoftzot2.bmp	 ClickXLwhite4.bmp	 18	 14	 0	 i	 1	 1	 828.85	 3.82	 4.76	 
bmem_snacks2_128	 0	 2	 04	 1	 75	 3.640085e+02	 Keifli.bmp	 BisliPizza3.bmp	 51	 52	 1	 i	 2	 0	 1208.04	 1.16	 0.89	 
bmem_snacks2_128	 0	 2	 04	 1	 76	 3.710163e+02	 ClickXLwhite4.bmp	 DoritosSourSpicy.bmp	 14	 12	 1	 i	 1	 0	 992.26	 4.76	 4.82	 
bmem_snacks2_128	 0	 2	 04	 1	 77	 3.780075e+02	 BisliPizza3.bmp	 BisliGrill.bmp	 52	 49	 0	 i	 2	 1	 937.02	 0.89	 1.44	 
bmem_snacks2_128	 0	 2	 04	 1	 78	 3.820120e+02	 DoritosGrill.bmp	 KinderBuenoBrown3.bmp	 7	 9	 0	 x	 1	 999	 999000.00	 5.07	 4.89	 
bmem_snacks2_128	 0	 2	 04	 1	 79	 3.860165e+02	 SkittlesFruits2.bmp	 GumiSnakes3.bmp	 43	 44	 1	 u	 2	 1	 1256.02	 1.58	 1.56	 
bmem_snacks2_128	 0	 2	 04	 1	 80	 3.950100e+02	 Smarties.bmp	 BisliPizza3.bmp	 48	 52	 1	 u	 2	 1	 662.53	 1.47	 0.89	 
bmem_snacks2_128	 0	 2	 04	 1	 81	 3.990144e+02	 ClickXLbrown4.bmp	 KinderBuenoBrown3.bmp	 10	 9	 0	 u	 1	 0	 626.11	 4.87	 4.89	 
bmem_snacks2_128	 0	 2	 04	 1	 82	 4.090090e+02	 BisliOnion.bmp	 Loacker.bmp	 54	 50	 1	 i	 2	 0	 759.53	 0.82	 1.40	 
bmem_snacks2_128	 0	 2	 04	 1	 83	 4.130134e+02	 Egozi.bmp	 Mekupelet.bmp	 15	 16	 0	 i	 1	 1	 1035.10	 4.53	 4.22	 
bmem_snacks2_128	 0	 2	 04	 1	 84	 4.180191e+02	 BisliGrill.bmp	 Twist.bmp	 49	 45	 1	 i	 2	 0	 1125.49	 1.44	 1.53	 
