subjectID	scanner	order	block	run	trial	onsettime	ImageLeft	ImageRight	bidIndexLeft	bidIndexRight	IsleftGo	Response	PairType	Outcome	RT	bidLeft	bidRight	
bmem_snacks2_107	 0	 1	 01	 1	 1	 2.018601e+00	 Twix.bmp	 Tapuchips.bmp	 48	 47	 0	 u	 2	 0	 1266.88	 3.11	 3.64	 
bmem_snacks2_107	 0	 1	 01	 1	 2	 7.024187e+00	 KinderBuenoWhite2.bmp	 BagaleShtuhim.bmp	 17	 12	 0	 u	 1	 0	 997.30	 4.76	 4.84	 
bmem_snacks2_107	 0	 1	 01	 1	 3	 1.701867e+01	 Kitkat.bmp	 BagaleShtuhim.bmp	 8	 12	 0	 u	 1	 0	 866.83	 4.91	 4.84	 
bmem_snacks2_107	 0	 1	 01	 1	 4	 2.102323e+01	 KinderBuenoWhite2.bmp	 ClickXLbrown4.bmp	 17	 15	 0	 u	 1	 0	 614.25	 4.76	 4.80	 
bmem_snacks2_107	 0	 1	 01	 1	 5	 2.601193e+01	 KinderBuenoWhite2.bmp	 TapuchipsCrunch.bmp	 17	 13	 0	 u	 1	 0	 825.55	 4.76	 4.84	 
bmem_snacks2_107	 0	 1	 01	 1	 6	 3.201885e+01	 KinderBuenoWhite2.bmp	 Taami.bmp	 17	 18	 0	 u	 1	 0	 458.71	 4.76	 4.69	 
bmem_snacks2_107	 0	 1	 01	 1	 7	 3.702451e+01	 ChocolateParaSucariotKoftzot2.bmp	 Bounty.bmp	 46	 44	 0	 u	 2	 0	 1268.98	 3.67	 3.69	 
bmem_snacks2_107	 0	 1	 01	 1	 8	 4.002790e+01	 DoritosNatural.bmp	 Bounty.bmp	 43	 44	 0	 x	 2	 999	 999000.00	 3.69	 3.69	 
bmem_snacks2_107	 0	 1	 01	 1	 9	 4.301456e+01	 TapuchipsCrunch.bmp	 GumiSnakes3.bmp	 13	 11	 1	 i	 1	 0	 806.92	 4.84	 4.87	 
bmem_snacks2_107	 0	 1	 01	 1	 10	 4.601791e+01	 Popco.bmp	 Kitkat.bmp	 10	 8	 1	 i	 1	 0	 1043.58	 4.87	 4.91	 
bmem_snacks2_107	 0	 1	 01	 1	 11	 4.902124e+01	 Mekupelet.bmp	 Snickers.bmp	 45	 51	 1	 u	 2	 1	 768.24	 3.69	 2.80	 
bmem_snacks2_107	 0	 1	 01	 1	 12	 5.601218e+01	 ChocolateParaSucariotKoftzot2.bmp	 WerthersOriginal.bmp	 46	 52	 0	 u	 2	 0	 665.32	 3.67	 2.80	 
bmem_snacks2_107	 0	 1	 01	 1	 13	 5.901579e+01	 KinderBuenoWhite2.bmp	 Hit.bmp	 17	 7	 0	 u	 1	 0	 421.71	 4.76	 4.96	 
bmem_snacks2_107	 0	 1	 01	 1	 14	 6.201923e+01	 CrunchBisquitBrown3.bmp	 ClickXLbrown4.bmp	 9	 15	 0	 u	 1	 0	 1274.27	 4.89	 4.80	 
bmem_snacks2_107	 0	 1	 01	 1	 15	 6.702480e+01	 Popco.bmp	 CrunchBisquitBrown3.bmp	 10	 9	 1	 i	 1	 0	 876.70	 4.87	 4.89	 
bmem_snacks2_107	 0	 1	 01	 1	 16	 7.301485e+01	 Bamba.bmp	 Mekupelet.bmp	 49	 45	 0	 i	 2	 1	 622.66	 2.91	 3.69	 
bmem_snacks2_107	 0	 1	 01	 1	 17	 7.802051e+01	 Bounty.bmp	 Bamba.bmp	 44	 49	 1	 u	 2	 1	 713.00	 3.69	 2.91	 
bmem_snacks2_107	 0	 1	 01	 1	 18	 8.302604e+01	 TapuchipsCrunch.bmp	 Kitkat.bmp	 13	 8	 1	 i	 1	 0	 683.46	 4.84	 4.91	 
bmem_snacks2_107	 0	 1	 01	 1	 19	 9.201957e+01	 BagaleShtuhim.bmp	 CrunchBisquitBrown3.bmp	 12	 9	 1	 i	 1	 0	 593.93	 4.84	 4.89	 
bmem_snacks2_107	 0	 1	 01	 1	 20	 9.702511e+01	 Mentos.bmp	 BabyDoll.bmp	 54	 50	 0	 i	 2	 1	 1444.39	 2.78	 2.87	 
bmem_snacks2_107	 0	 1	 01	 1	 21	 1.030153e+02	 Mentos.bmp	 Mekupelet.bmp	 54	 45	 0	 i	 2	 1	 646.24	 2.78	 3.69	 
bmem_snacks2_107	 0	 1	 01	 1	 22	 1.060186e+02	 Bamba.bmp	 Halva2.bmp	 49	 53	 0	 i	 2	 1	 682.92	 2.91	 2.80	 
bmem_snacks2_107	 0	 1	 01	 1	 23	 1.190165e+02	 BagaleShtuhim.bmp	 GumiSnakes3.bmp	 12	 11	 1	 i	 1	 0	 965.00	 4.84	 4.87	 
bmem_snacks2_107	 0	 1	 01	 1	 24	 1.230210e+02	 WerthersOriginal.bmp	 Snickers.bmp	 52	 51	 1	 i	 2	 0	 728.52	 2.80	 2.80	 
bmem_snacks2_107	 0	 1	 01	 1	 25	 1.290111e+02	 ClickXLbrown4.bmp	 GumiSnakes3.bmp	 15	 11	 1	 u	 1	 1	 922.40	 4.80	 4.87	 
bmem_snacks2_107	 0	 1	 01	 1	 26	 1.360189e+02	 Popco.bmp	 KinderBuenoWhite2.bmp	 10	 17	 1	 i	 1	 0	 738.63	 4.87	 4.76	 
bmem_snacks2_107	 0	 1	 01	 1	 27	 1.410245e+02	 Mekupelet.bmp	 ChocolateParaSucariotKoftzot2.bmp	 45	 46	 1	 i	 2	 0	 973.02	 3.69	 3.67	 
bmem_snacks2_107	 0	 1	 01	 1	 28	 1.440279e+02	 KifkefMaklot2.bmp	 BisliGrill.bmp	 21	 22	 0	 i	 4	 1	 1065.58	 3.96	 3.93	 
bmem_snacks2_107	 0	 1	 01	 1	 29	 1.470145e+02	 Hit.bmp	 GumiSnakes3.bmp	 7	 11	 1	 u	 1	 1	 910.96	 4.96	 4.87	 
bmem_snacks2_107	 0	 1	 01	 1	 30	 1.500179e+02	 HappyHippo.bmp	 Keifli.bmp	 56	 6	 0	 u	 3	 0	 819.58	 2.76	 4.96	 
bmem_snacks2_107	 0	 1	 01	 1	 31	 1.530213e+02	 Kitkat.bmp	 ClickXLbrown4.bmp	 8	 15	 0	 u	 1	 0	 624.19	 4.91	 4.80	 
bmem_snacks2_107	 0	 1	 01	 1	 32	 1.570258e+02	 WerthersOriginal.bmp	 Twix.bmp	 52	 48	 1	 i	 2	 0	 867.67	 2.80	 3.11	 
bmem_snacks2_107	 0	 1	 01	 1	 33	 1.600458e+02	 DoritosNatural.bmp	 Halva2.bmp	 43	 53	 0	 i	 2	 1	 631.74	 3.69	 2.80	 
bmem_snacks2_107	 0	 1	 01	 1	 34	 1.690226e+02	 Hit.bmp	 Kitkat.bmp	 7	 8	 1	 i	 1	 0	 1006.95	 4.96	 4.91	 
bmem_snacks2_107	 0	 1	 01	 1	 35	 1.730271e+02	 Tortit.bmp	 Keifli.bmp	 55	 6	 0	 u	 3	 0	 1170.44	 2.78	 4.96	 
bmem_snacks2_107	 0	 1	 01	 1	 36	 1.760138e+02	 Twix.bmp	 Halva2.bmp	 48	 53	 0	 u	 2	 0	 1111.74	 3.11	 2.80	 
bmem_snacks2_107	 0	 1	 01	 1	 37	 1.880272e+02	 Taami.bmp	 Kitkat.bmp	 18	 8	 1	 u	 1	 1	 1026.32	 4.69	 4.91	 
bmem_snacks2_107	 0	 1	 01	 1	 38	 1.920151e+02	 Bounty.bmp	 Twix.bmp	 44	 48	 1	 i	 2	 0	 926.41	 3.69	 3.11	 
bmem_snacks2_107	 0	 1	 01	 1	 39	 1.950183e+02	 Mentos.bmp	 Halva2.bmp	 54	 53	 0	 i	 2	 1	 931.17	 2.78	 2.80	 
bmem_snacks2_107	 0	 1	 01	 1	 40	 1.990228e+02	 Tapuchips.bmp	 Bamba.bmp	 47	 49	 1	 u	 2	 1	 966.66	 3.64	 2.91	 
bmem_snacks2_107	 0	 1	 01	 1	 41	 2.030274e+02	 Twix.bmp	 Mekupelet.bmp	 48	 45	 0	 u	 2	 0	 698.13	 3.11	 3.69	 
bmem_snacks2_107	 0	 1	 01	 1	 42	 2.080163e+02	 Mekupelet.bmp	 DoritosNatural.bmp	 45	 43	 1	 u	 2	 1	 605.28	 3.69	 3.69	 
bmem_snacks2_107	 0	 1	 01	 1	 43	 2.160253e+02	 Snickers.bmp	 BabyDoll.bmp	 51	 50	 0	 u	 2	 0	 548.23	 2.80	 2.87	 
bmem_snacks2_107	 0	 1	 01	 1	 44	 2.200131e+02	 ClickBalls5.bmp	 BambaNugat.bmp	 41	 42	 0	 u	 5	 0	 640.36	 3.69	 3.69	 
bmem_snacks2_107	 0	 1	 01	 1	 45	 2.240176e+02	 BagaleShtuhim.bmp	 KinderBuenoBrown3.bmp	 12	 14	 1	 i	 1	 0	 715.87	 4.84	 4.84	 
bmem_snacks2_107	 0	 1	 01	 1	 46	 2.380167e+02	 DoritosSourSpicy.bmp	 ChocolateParaMilk3.bmp	 39	 40	 1	 i	 5	 0	 684.85	 3.73	 3.71	 
bmem_snacks2_107	 0	 1	 01	 1	 47	 2.410200e+02	 ChocolateParaMilk3.bmp	 DoritosSourSpicy.bmp	 40	 39	 0	 u	 5	 0	 641.50	 3.71	 3.73	 
bmem_snacks2_107	 0	 1	 01	 1	 48	 2.450245e+02	 Egozi.bmp	 Popco.bmp	 16	 10	 0	 u	 1	 0	 668.97	 4.80	 4.87	 
bmem_snacks2_107	 0	 1	 01	 1	 49	 2.490120e+02	 Taami.bmp	 Egozi.bmp	 18	 16	 1	 i	 1	 0	 1153.50	 4.69	 4.80	 
bmem_snacks2_107	 0	 1	 01	 1	 50	 2.550190e+02	 Bamba.bmp	 WerthersOriginal.bmp	 49	 52	 0	 u	 2	 0	 1058.51	 2.91	 2.80	 
bmem_snacks2_107	 0	 1	 01	 1	 51	 2.580223e+02	 Egozi.bmp	 Hit.bmp	 16	 7	 0	 u	 1	 0	 599.16	 4.80	 4.96	 
bmem_snacks2_107	 0	 1	 01	 1	 52	 2.610258e+02	 CrunchBisquitBrown3.bmp	 TapuchipsCrunch.bmp	 9	 13	 0	 u	 1	 0	 563.70	 4.89	 4.84	 
bmem_snacks2_107	 0	 1	 01	 1	 53	 2.660146e+02	 Snickers.bmp	 Bounty.bmp	 51	 44	 0	 u	 2	 0	 878.86	 2.80	 3.69	 
bmem_snacks2_107	 0	 1	 01	 1	 54	 2.760259e+02	 Tortit.bmp	 SkittlesFruits2.bmp	 55	 5	 0	 u	 3	 0	 715.61	 2.78	 5.00	 
bmem_snacks2_107	 0	 1	 01	 1	 55	 2.790123e+02	 SkittlesFruits2.bmp	 HappyHippo.bmp	 5	 56	 1	 i	 3	 0	 801.25	 5.00	 2.76	 
bmem_snacks2_107	 0	 1	 01	 1	 56	 2.820159e+02	 BabyDoll.bmp	 DoritosNatural.bmp	 50	 43	 1	 i	 2	 0	 885.57	 2.87	 3.69	 
bmem_snacks2_107	 0	 1	 01	 1	 57	 2.870216e+02	 CrunchBisquitBrown3.bmp	 Hit.bmp	 9	 7	 0	 u	 1	 0	 543.95	 4.89	 4.96	 
bmem_snacks2_107	 0	 1	 01	 1	 58	 2.900249e+02	 Tapuchips.bmp	 Snickers.bmp	 47	 51	 1	 i	 2	 0	 740.57	 3.64	 2.80	 
bmem_snacks2_107	 0	 1	 01	 1	 59	 2.960150e+02	 BisliOnion.bmp	 BisliPizza3.bmp	 19	 20	 1	 u	 4	 1	 982.54	 4.69	 4.00	 
bmem_snacks2_107	 0	 1	 01	 1	 60	 2.990184e+02	 Tapuchips.bmp	 Mentos.bmp	 47	 54	 1	 i	 2	 0	 1291.13	 3.64	 2.78	 
bmem_snacks2_107	 0	 1	 01	 1	 61	 3.040240e+02	 DoritosNatural.bmp	 WerthersOriginal.bmp	 43	 52	 0	 u	 2	 0	 981.54	 3.69	 2.80	 
bmem_snacks2_107	 0	 1	 01	 1	 62	 3.070275e+02	 BagaleShtuhim.bmp	 Egozi.bmp	 12	 16	 1	 i	 1	 0	 818.02	 4.84	 4.80	 
bmem_snacks2_107	 0	 1	 01	 1	 63	 3.150197e+02	 WerthersOriginal.bmp	 Mentos.bmp	 52	 54	 1	 i	 2	 0	 905.84	 2.80	 2.78	 
bmem_snacks2_107	 0	 1	 01	 1	 64	 3.190242e+02	 BisliGrill.bmp	 KifkefMaklot2.bmp	 22	 21	 1	 i	 4	 0	 1437.35	 3.93	 3.96	 
bmem_snacks2_107	 0	 1	 01	 1	 65	 3.230116e+02	 Taami.bmp	 KinderBuenoBrown3.bmp	 18	 14	 1	 i	 1	 0	 1105.87	 4.69	 4.84	 
bmem_snacks2_107	 0	 1	 01	 1	 66	 3.280175e+02	 Popco.bmp	 KinderBuenoBrown3.bmp	 10	 14	 1	 i	 1	 0	 740.00	 4.87	 4.84	 
bmem_snacks2_107	 0	 1	 01	 1	 67	 3.320221e+02	 Egozi.bmp	 TapuchipsCrunch.bmp	 16	 13	 0	 u	 1	 0	 903.46	 4.80	 4.84	 
bmem_snacks2_107	 0	 1	 01	 1	 68	 3.370277e+02	 BambaNugat.bmp	 ClickBalls5.bmp	 42	 41	 1	 i	 5	 0	 1129.84	 3.69	 3.69	 
bmem_snacks2_107	 0	 1	 01	 1	 69	 3.450199e+02	 GumiSnakes3.bmp	 Taami.bmp	 11	 18	 0	 i	 1	 1	 913.56	 4.87	 4.69	 
bmem_snacks2_107	 0	 1	 01	 1	 70	 3.480234e+02	 Bamba.bmp	 BabyDoll.bmp	 49	 50	 0	 u	 2	 0	 886.15	 2.91	 2.87	 
bmem_snacks2_107	 0	 1	 01	 1	 71	 3.510267e+02	 Tapuchips.bmp	 ChocolateParaSucariotKoftzot2.bmp	 47	 46	 1	 i	 2	 0	 1178.84	 3.64	 3.67	 
bmem_snacks2_107	 0	 1	 01	 1	 72	 3.560156e+02	 TapuchipsCrunch.bmp	 KinderBuenoBrown3.bmp	 13	 14	 1	 i	 1	 0	 693.86	 4.84	 4.84	 
bmem_snacks2_107	 0	 1	 01	 1	 73	 3.600201e+02	 Tapuchips.bmp	 DoritosNatural.bmp	 47	 43	 1	 x	 2	 999	 999000.00	 3.64	 3.69	 
bmem_snacks2_107	 0	 1	 01	 1	 74	 3.630235e+02	 Bounty.bmp	 Mentos.bmp	 44	 54	 1	 i	 2	 0	 1022.04	 3.69	 2.78	 
bmem_snacks2_107	 0	 1	 01	 1	 75	 3.740192e+02	 Hit.bmp	 KinderBuenoBrown3.bmp	 7	 14	 1	 i	 1	 0	 930.35	 4.96	 4.84	 
bmem_snacks2_107	 0	 1	 01	 1	 76	 3.840137e+02	 BabyDoll.bmp	 ChocolateParaSucariotKoftzot2.bmp	 50	 46	 1	 i	 2	 0	 751.83	 2.87	 3.67	 
bmem_snacks2_107	 0	 1	 01	 1	 77	 3.890193e+02	 KinderBuenoBrown3.bmp	 ClickXLbrown4.bmp	 14	 15	 0	 u	 1	 0	 1026.25	 4.84	 4.80	 
bmem_snacks2_107	 0	 1	 01	 1	 78	 3.930238e+02	 BabyDoll.bmp	 Twix.bmp	 50	 48	 1	 i	 2	 0	 709.74	 2.87	 3.11	 
bmem_snacks2_107	 0	 1	 01	 1	 79	 3.970283e+02	 ChocolateParaSucariotKoftzot2.bmp	 Halva2.bmp	 46	 53	 0	 u	 2	 0	 889.20	 3.67	 2.80	 
bmem_snacks2_107	 0	 1	 01	 1	 80	 4.010161e+02	 ClickXLbrown4.bmp	 Egozi.bmp	 15	 16	 1	 u	 1	 1	 701.42	 4.80	 4.80	 
bmem_snacks2_107	 0	 1	 01	 1	 81	 4.070228e+02	 BisliPizza3.bmp	 BisliOnion.bmp	 20	 19	 0	 i	 4	 1	 718.68	 4.00	 4.69	 
bmem_snacks2_107	 0	 1	 01	 1	 82	 4.100262e+02	 Snickers.bmp	 Halva2.bmp	 51	 53	 0	 u	 2	 0	 707.33	 2.80	 2.80	 
bmem_snacks2_107	 0	 1	 01	 1	 83	 4.140140e+02	 Taami.bmp	 CrunchBisquitBrown3.bmp	 18	 9	 1	 i	 1	 0	 935.51	 4.69	 4.89	 
bmem_snacks2_107	 0	 1	 01	 1	 84	 4.180185e+02	 GumiSnakes3.bmp	 Popco.bmp	 11	 10	 0	 i	 1	 1	 811.03	 4.87	 4.87	 
