subjectID	scanner	order	block	run	trial	onsettime	ImageLeft	ImageRight	bidIndexLeft	bidIndexRight	IsleftGo	Response	PairType	Outcome	RT	bidLeft	bidRight	FixationTime	Contingency	PlannedOnset	onset	duration
BM_121	0	1	1	1	1	4.00462420700205	1060.jpg	1114.jpg	43	45	0	i	5	1	938.521037001919	0.4940265	0.4642154	4.95537449500262	1	4	4.00462420700205	0.950750288000563
BM_121	0	1	1	1	2	7.70885115300189	2118.jpg	2110.jpg	14	10	0	i	1	1	626.292057000683	0.7300794	0.7732489	8.35965600000054	1	7.7	7.70885115300189	0.650804846998653
BM_121	0	1	1	1	3	11.2960385600018	2043.jpg	2181.jpg	27	31	0	i	3	1	999.117628998647	0.6111877	0.595806	12.3132001640042	0.5	11.3	11.2960385600018	1.01716160400247
BM_121	0	1	1	1	4	15.1001561170051	2024.jpg	1226.jpg	50	55	0	u	6	0	850.975774999824	0.4128794	0.3437928	15.9674908740053	0.5	15.1	15.1001561170051	0.867334757000208
BM_121	0	1	1	1	5	20.3058607730054	2240.jpg	2053.jpg	23	24	1	i	2	0	893.296919995919	0.6410777	0.6315843	21.2057596619998	0.5	20.3	20.3058607730054	0.899898888994358
BM_121	0	1	1	1	6	23.809924332003	2125.jpg	2221.jpg	36	35	1	u	4	1	669.20085199672	0.5687414	0.5688971	24.4947412890033	1	23.8	23.809924332003	0.684816957000294
BM_121	0	1	1	1	7	26.8967234849988	1130.jpg	1204.jpg	64	63	0	i	7	1	1230.40078300255	0.2769147	0.2936674	28.1486595599999	0.5	26.9	26.8967234849988	1.25193607500114
BM_121	0	1	1	1	8	31.2020682049988	1050.jpg	2209.jpg	34	33	0	i	4	1	813.094716002524	0.5802754	0.5837186	32.0355083290051	1	31.2	31.2020682049988	0.833440124006302
BM_121	0	1	1	1	9	36.6077819109996	1028.jpg	2124.jpg	13	9	1	u	1	1	551.387907005847	0.7346361	0.777782	37.1744932380025	1	36.6	36.6077819109996	0.566711327002849
BM_121	0	1	1	1	10	40.0118942490008	1204.jpg	1145.jpg	63	60	1	i	7	0	851.227978004317	0.2936674	0.3150239	40.8798905299991	0.5	40	40.0118942490008	0.867996280998341
BM_121	0	1	1	1	11	45.3012977010003	1115.jpg	1228.jpg	69	67	1	i	8	0	1161.82550899975	0.2271623	0.2370447	46.4856527849988	1	45.3	45.3012977010003	1.18435508399853
BM_121	0	1	1	1	12	53.7103956850042	2248.jpg	1035.jpg	37	38	0	i	4	1	696.733311000571	0.5617725	0.559295	54.4282782709997	1	53.7	53.7103956850042	0.71788258599554
BM_121	0	1	1	1	13	59.3001844559985	2089.jpg	2110.jpg	12	10	0	u	1	0	1218.96092400129	0.76393	0.7732489	60.5343384030057	1	59.3	59.3001844559985	1.23415394700714
BM_121	0	1	1	1	14	62.6036771729996	2248.jpg	2209.jpg	37	33	0	i	4	1	691.445315002056	0.5617725	0.5837186	63.3041349699997	1	62.6	62.6036771729996	0.700457797000126
BM_121	0	1	1	1	15	66.708268911003	2089.jpg	1028.jpg	12	13	0	i	1	1	562.852413997462	0.76393	0.7346361	67.2922122380041	1	66.7	66.708268911003	0.58394332700118
BM_121	0	1	1	1	16	70.5957333309998	1130.jpg	1019.jpg	64	59	0	u	7	0	899.404761999904	0.2769147	0.3151345	71.5137733540032	0.5	70.6	70.5957333309998	0.918040023003414
BM_121	0	1	1	1	17	74.8003549450004	2111.jpg	1013.jpg	68	71	1	u	8	1	1118.78529599926	0.2312333	0.2230639	75.9347770780005	1	74.8	74.8003549450004	1.13442213300004
BM_121	0	1	1	1	18	79.1051855240003	2024.jpg	1007.jpg	50	54	0	i	6	1	1021.94602900272	0.4128794	0.3535575	80.1394743160054	0.5	79.1	79.1051855240003	1.0342887920051
BM_121	0	1	1	1	19	83.9107587990002	1182.jpg	2154.jpg	41	42	1	u	5	1	976.397381004062	0.5125122	0.5120925	84.8937621610021	1	83.9	83.9107587990002	0.983003362001909
BM_121	0	1	1	1	20	86.8977771610007	2128.jpg	1031.jpg	47	48	0	i	5	1	709.365670001716	0.446572	0.4379245	87.6141083000039	1	86.9	86.8977771610007	0.716331139003159
BM_121	0	1	1	1	21	92.1031743100029	2063.jpg	2125.jpg	40	36	0	i	4	1	1031.95969700027	0.5473676	0.5687414	93.1548933349986	1	92.1	92.1031743100029	1.05171902499569
BM_121	0	1	1	1	22	96.0082184610001	2016.jpg	2221.jpg	39	35	1	u	4	1	1030.93667600479	0.5511073	0.5688971	97.058436475003	1	96	96.0082184610001	1.05021801400289
BM_121	0	1	1	1	23	99.1112126890002	1192.jpg	1173.jpg	49	56	1	x	6	999	999000	0.4162639	0.3416911	100.612947036003	0.5	99.1	99.1112126890002	1.50173434700264
BM_121	0	1	1	1	24	102.097947611001	1173.jpg	1127.jpg	56	52	0	i	6	1	749.19599200075	0.3416911	0.4033364	102.865679555005	0.5	102.1	102.097947611001	0.767731944004481
BM_121	0	1	1	1	25	105.101142549	1262.jpg	1013.jpg	72	71	1	x	8	999	999000	0.2150577	0.2230639	106.619251845004	1	105.1	105.101142549	1.5181092960047
BM_121	0	1	1	1	26	109.806619970004	1115.jpg	2045.jpg	69	70	1	u	8	1	816.523208995932	0.2271623	0.2262131	110.641121060005	1	109.8	109.806619970004	0.83450109000114
BM_121	0	1	1	1	27	113.310462939	2041.jpg	2181.jpg	29	31	0	u	3	0	648.674557000049	0.6059526	0.595806	113.977720068004	0.5	113.3	113.310462939	0.667257129003701
BM_121	0	1	1	1	28	120.201541291004	2110.jpg	1009.jpg	10	15	1	i	1	0	869.591759998002	0.7732489	0.6926331	121.085424290002	1	120.2	120.201541291004	0.88388299899816
BM_121	0	1	1	1	29	123.205653659999	2016.jpg	1050.jpg	39	34	1	u	4	1	681.503137006075	0.5511073	0.5802754	123.905329744004	1	123.2	123.205653659999	0.69967608400475
BM_121	0	1	1	1	30	128.211252818001	2111.jpg	1228.jpg	68	67	1	i	8	0	803.890897004749	0.2312333	0.2370447	129.028652567999	1	128.2	128.211252818001	0.817399749998003
BM_121	0	1	1	1	31	131.597897184001	2039.jpg	2217.jpg	32	28	0	i	3	1	897.260532001383	0.5942534	0.6060277	132.515567134004	0.5	131.6	131.597897184001	0.917669950002164
BM_121	0	1	1	1	32	137.103885386001	1145.jpg	1052.jpg	60	58	0	u	7	0	991.246026998851	0.3150239	0.3203627	138.105260165001	0.5	137.1	137.103885386001	1.00137477899989
BM_121	0	1	1	1	33	144.695672921	1130.jpg	1210.jpg	64	62	0	i	7	1	903.450467005314	0.2769147	0.304548	145.613284163999	0.5	144.7	144.695672921	0.917611242999556
BM_121	0	1	1	1	34	148.600108155006	1255.jpg	2249.jpg	17	18	1	u	2	1	847.013777995016	0.6803414	0.6800054	149.467876847004	0.5	148.6	148.600108155006	0.867768691998208
BM_121	0	1	1	1	35	153.305707732005	1027.jpg	1127.jpg	51	52	0	u	6	0	837.434789995314	0.4055434	0.4033364	154.156406839	0.5	153.3	153.305707732005	0.850699106995307
BM_121	0	1	1	1	36	157.00987822	1144.jpg	1204.jpg	61	63	0	u	7	0	909.24878000078	0.3089683	0.2936674	157.925528749001	0.5	157	157.00987822	0.915650529001141
BM_121	0	1	1	1	37	160.496788640005	1216.jpg	2053.jpg	20	24	1	i	2	0	998.340261998237	0.6601012	0.6315843	161.515381819001	0.5	160.5	160.496788640005	1.01859317899653
BM_121	0	1	1	1	38	163.700799409002	1207.jpg	2229.jpg	22	21	1	i	2	0	1394.36609500262	0.6471574	0.6595056	165.101885296004	0.5	163.7	163.700799409002	1.40108588700241
BM_121	0	1	1	1	39	173.311272210005	2010.jpg	1255.jpg	19	17	0	i	2	1	655.870957998559	0.6764241	0.6803414	173.978808681	0.5	173.3	173.311272210005	0.667536470995401
BM_121	0	1	1	1	40	176.998834675003	1019.jpg	1145.jpg	59	60	1	i	7	0	848.30890900048	0.3151345	0.3150239	177.866798843002	0.5	177	176.998834675003	0.867964167999162
BM_121	0	1	1	1	41	180.502880584005	1173.jpg	1007.jpg	56	54	0	i	6	1	928.305736000766	0.3416911	0.3535575	181.453891483005	0.5	180.5	180.502880584005	0.951010898999812
BM_121	0	1	1	1	42	189.496643609004	2217.jpg	2041.jpg	28	29	1	i	3	0	678.489441001147	0.6060277	0.6059526	190.197078142002	0.5	189.5	189.496643609004	0.70043453299877
BM_121	0	1	1	1	43	193.200113250001	1210.jpg	1145.jpg	62	60	1	i	7	0	767.034420001437	0.304548	0.3150239	193.984963811003	0.5	193.2	193.200113250001	0.784850561001804
BM_121	0	1	1	1	44	197.50527247	2128.jpg	1114.jpg	47	45	0	i	5	1	677.863335004076	0.446572	0.4642154	198.205437485005	1	197.5	197.50527247	0.700165015005041
BM_121	0	1	1	1	45	203.395338978	2212.jpg	1191.jpg	30	26	1	i	3	0	987.795467000979	0.6039542	0.6185192	204.396242469003	0.5	203.4	203.395338978	1.00090349100356
BM_121	0	1	1	1	46	209.502241318005	2010.jpg	1216.jpg	19	20	0	i	2	1	1048.89669199474	0.6764241	0.6601012	210.569572761	0.5	209.5	209.502241318005	1.06733144299506
BM_121	0	1	1	1	47	213.206463400005	2128.jpg	1182.jpg	47	41	0	i	5	1	656.681414999184	0.446572	0.5125122	213.873542651003	1	213.2	213.206463400005	0.667079250997631
BM_121	0	1	1	1	48	220.096913683003	2212.jpg	2041.jpg	30	29	1	i	3	0	646.208626996668	0.6039542	0.6059526	220.764316842004	0.5	220.1	220.096913683003	0.667403159000969
BM_121	0	1	1	1	49	229.407459266004	2240.jpg	2010.jpg	23	19	1	u	2	1	679.675303996191	0.6410777	0.6764241	230.108668645	0.5	229.4	229.407459266004	0.701209378996282
BM_121	0	1	1	1	50	233.3960161	2229.jpg	2240.jpg	21	23	0	i	2	1	795.128410005418	0.6595056	0.6410777	234.212820321001	0.5	233.4	233.3960161	0.816804221001803
BM_121	0	1	1	1	51	238.000736336006	2154.jpg	2201.jpg	42	44	0	i	5	1	1030.42105599889	0.5120925	0.4759345	239.0514176	1	238	238.000736336006	1.05068126399419
BM_121	0	1	1	1	52	241.905292862	1114.jpg	1254.jpg	45	46	1	i	5	0	893.829954999092	0.4642154	0.4573586	242.805160743002	1	241.9	241.905292862	0.899867881002137
BM_121	0	1	1	1	53	249.997643321003	2217.jpg	1191.jpg	28	26	1	i	3	0	1241.4910180014	0.6060277	0.6185192	251.248094850002	0.5	250	249.997643321003	1.25045152899838
BM_121	0	1	1	1	54	254.502316127	1050.jpg	2125.jpg	34	36	0	i	4	1	1304.8170040056	0.5802754	0.5687414	255.820808358003	1	254.5	254.502316127	1.31849223100289
BM_121	0	1	1	1	55	258.006455690003	1028.jpg	1009.jpg	13	15	1	u	1	1	576.68809399911	0.7346361	0.6926331	258.607503059	1	258	258.006455690003	0.60104736899666
BM_121	0	1	1	1	56	261.910612771004	1226.jpg	2149.jpg	55	53	1	u	6	1	704.508097995131	0.3437928	0.3805978	262.628860486002	0.5	261.9	261.910612771004	0.718247714998142
BM_121	0	1	1	1	57	265.097757199001	2039.jpg	2015.jpg	32	25	0	i	3	1	669.366340000124	0.5942534	0.6264144	265.781220999001	0.5	265.1	265.097757199001	0.683463800000027
BM_121	0	1	1	1	58	271.404548946004	1115.jpg	1013.jpg	69	71	1	u	8	1	746.572300995467	0.2271623	0.2230639	272.172062026999	1	271.4	271.404548946004	0.767513080994831
BM_121	0	1	1	1	59	282.900846607001	1007.jpg	2149.jpg	54	53	1	i	6	0	826.297553998302	0.3535575	0.3805978	283.735205511002	0.5	282.9	282.900846607001	0.834358904001419
BM_121	0	1	1	1	60	291.210683976002	2194.jpg	2045.jpg	65	70	1	i	8	0	1148.44001999882	0.2702679	0.2262131	292.377928939	1	291.2	291.210683976002	1.16724496299867
BM_121	0	1	1	1	61	299.303383889004	1060.jpg	1031.jpg	43	48	0	i	5	1	951.739699994505	0.4940265	0.4379245	300.270285630002	1	299.3	299.303383889004	0.966901740997855
BM_121	0	1	1	1	62	308.195810698002	2110.jpg	2124.jpg	10	9	1	i	1	0	1115.32230299781	0.7732489	0.777782	309.330922446999	1	308.2	308.195810698002	1.13511174899759
BM_121	0	1	1	1	63	313.702497831	2008.jpg	1009.jpg	11	15	1	i	1	0	1016.66028800537	0.7686756	0.6926331	314.737094618002	1	313.7	313.702497831	1.03459678700165
BM_121	0	1	1	1	64	319.008125279004	1146.jpg	1262.jpg	66	72	0	i	8	1	710.997125999711	0.2401457	0.2150577	319.724970057003	1	319	319.008125279004	0.716844777998631
BM_121	0	1	2	1	65	321.995521609999	2201.jpg	1254.jpg	44	46	1	u	5	1	763.620893005282	0.4759345	0.4573586	322.779572792002	1	322	321.995521609999	0.784051182003168
BM_121	0	1	2	1	66	325.698929971004	2008.jpg	2118.jpg	11	14	1	i	1	0	940.228093000769	0.7686756	0.7300794	326.650538874004	1	325.7	325.698929971004	0.951608903000306
BM_121	0	1	2	1	67	329.303327877999	2181.jpg	1191.jpg	31	26	1	i	3	0	1055.81588500354	0.595806	0.6185192	330.370400489002	0.5	329.3	329.303327877999	1.06707261100382
BM_121	0	1	2	1	68	333.107498461999	1027.jpg	1226.jpg	51	55	0	i	6	1	939.644896003301	0.4055434	0.3437928	334.058665310004	0.5	333.1	333.107498461999	0.951166848004505
BM_121	0	1	2	1	69	338.296898789005	2249.jpg	2240.jpg	18	23	0	i	2	1	670.254306998686	0.6800054	0.6410777	338.980508968001	0.5	338.3	338.296898789005	0.683610178995878
BM_121	0	1	2	1	70	341.80034478	1050.jpg	1035.jpg	34	38	0	i	4	1	582.799003001128	0.5802754	0.559295	342.400830674	1	341.8	341.80034478	0.600485893999576
BM_121	0	1	2	1	71	344.904129630006	1204.jpg	2155.jpg	63	57	1	i	7	0	1158.99570999318	0.2936674	0.3345597	346.069907113	0.5	344.9	344.904129630006	1.1657774829946
BM_121	0	1	2	1	72	349.208680166004	2221.jpg	2209.jpg	35	33	0	i	4	1	982.444297995244	0.5688971	0.5837186	350.209600685004	1	349.2	349.208680166004	1.00092051899992
BM_121	0	1	2	1	73	354.598064974001	2058.jpg	2089.jpg	16	12	1	u	1	1	921.067668998148	0.6834514	0.76393	355.532296046003	1	354.6	354.598064974001	0.934231072002149
BM_121	0	1	2	1	74	358.001988377	2155.jpg	1210.jpg	57	62	0	i	7	1	861.157166000339	0.3345597	0.304548	358.869213180005	0.5	358	358.001988377	0.867224803005229
BM_121	0	1	2	1	75	363.308014193004	1146.jpg	2111.jpg	66	68	0	i	8	1	1251.12914399506	0.2401457	0.2312333	364.576478206	1	363.3	363.308014193004	1.26846401299554
BM_121	0	1	2	1	76	371.701257727	2063.jpg	1035.jpg	40	38	0	i	4	1	593.864598005894	0.5473676	0.559295	372.317717240003	1	371.7	371.701257727	0.616459513003065
BM_121	0	1	2	1	77	377.307153661	2089.jpg	2008.jpg	12	11	0	u	1	0	1147.97066699975	0.76393	0.7686756	378.474586344004	1	377.3	377.307153661	1.16743268300343
BM_121	0	1	2	1	78	380.610453102003	2209.jpg	2063.jpg	33	40	1	u	4	1	796.679729995958	0.5837186	0.5473676	381.428640172999	1	380.6	380.610453102003	0.818187070995918
BM_121	0	1	2	1	79	384.699133817005	2058.jpg	2118.jpg	16	14	1	u	1	1	715.998799998488	0.6834514	0.7300794	385.432867345	1	384.7	384.699133817005	0.733733527995355
BM_121	0	1	2	1	80	388.602757485001	1130.jpg	1052.jpg	64	58	0	x	7	999	999000	0.2769147	0.3203627	390.104326778004	0.5	388.6	388.602757485001	1.50156929300283
BM_121	0	1	2	1	81	392.807876396	2194.jpg	1013.jpg	65	71	1	u	8	1	679.26746699959	0.2702679	0.2230639	393.508035450002	1	392.8	392.807876396	0.700159054002143
BM_121	0	1	2	1	82	397.095766293001	1127.jpg	2024.jpg	52	50	1	u	6	1	1311.35775899747	0.4033364	0.4128794	398.430448137005	0.5	397.1	397.095766293001	1.33468184400408
BM_121	0	1	2	1	83	401.901736452004	1060.jpg	1182.jpg	43	41	0	i	5	1	873.433561995625	0.4940265	0.5125122	402.785692003999	1	401.9	401.901736452004	0.883955551995314
BM_121	0	1	2	1	84	404.904506511004	1031.jpg	1254.jpg	48	46	1	u	5	1	1134.63569199666	0.4379245	0.4573586	406.055489272003	1	404.9	404.904506511004	1.15098276099889
BM_121	0	1	2	1	85	410.110425481005	1035.jpg	2221.jpg	38	35	1	u	4	1	744.707471996662	0.559295	0.5688971	410.877668772999	1	410.1	410.110425481005	0.767243291993509
BM_121	0	1	2	1	86	413.998038964004	2063.jpg	2016.jpg	40	39	0	i	4	1	761.103871998785	0.5473676	0.5511073	414.765140454001	1	414	413.998038964004	0.767101489997003
BM_121	0	1	2	1	87	417.101516763003	2024.jpg	1192.jpg	50	49	0	u	6	0	921.624500995676	0.4128794	0.4162639	418.036095911004	0.5	417.1	417.101516763003	0.934579148000921
BM_121	0	1	2	1	88	420.104685855003	2149.jpg	1192.jpg	53	49	0	i	6	1	1166.45634800079	0.3805978	0.4162639	421.289346930003	0.5	420.1	420.104685855003	1.18466107499989
BM_121	0	1	2	1	89	423.108468696002	2045.jpg	1262.jpg	70	72	0	u	8	0	1138.65594300296	0.2262131	0.2150577	424.259492788005	1	423.1	423.108468696002	1.15102409200335
BM_121	0	1	2	1	90	427.796786650004	2111.jpg	2045.jpg	68	70	1	i	8	0	1066.35231000109	0.2312333	0.2262131	428.882037344003	1	427.8	427.796786650004	1.08525069399911
BM_121	0	1	2	1	91	431.300826308005	2181.jpg	2039.jpg	31	32	1	u	3	1	770.306336999056	0.595806	0.5942534	432.085134293004	0.5	431.3	431.300826308005	0.784307984999032
BM_121	0	1	2	1	92	438.208503623006	1028.jpg	2118.jpg	13	14	1	i	1	0	1398.6289309978	0.7346361	0.7300794	439.627250128004	1	438.2	438.208503623006	1.41874650499813
BM_121	0	1	2	1	93	441.195430774002	2248.jpg	2016.jpg	37	39	0	i	4	1	851.734875999682	0.5617725	0.5511073	442.062335688002	1	441.2	441.195430774002	0.86690491400077
BM_121	0	1	2	1	94	446.200860636003	2194.jpg	1228.jpg	65	67	1	i	8	0	1230.27363899746	0.2702679	0.2370447	447.452192965	1	446.2	446.200860636003	1.2513323289968
BM_121	0	1	2	1	95	449.60461414	2043.jpg	2217.jpg	27	28	0	i	3	1	1018.51188200089	0.6111877	0.6060277	450.639590557003	0.5	449.6	449.60461414	1.03497641700233
BM_121	0	1	2	1	96	455.111448143005	1052.jpg	2155.jpg	58	57	1	u	7	1	863.685561998864	0.3203627	0.3345597	455.994885193999	0.5	455.1	455.111448143005	0.883437050993962
BM_121	0	1	2	1	97	462.702636968999	1144.jpg	1019.jpg	61	59	0	i	7	1	1264.48528900073	0.3089683	0.3151345	463.987774913003	0.5	462.7	462.702636968999	1.28513794400351
BM_121	0	1	2	1	98	466.607716509003	1255.jpg	2229.jpg	17	21	1	u	2	1	727.407664002385	0.6803414	0.6595056	467.341113209004	0.5	466.6	466.607716509003	0.733396700001322
BM_121	0	1	2	1	99	471.295788009003	1192.jpg	1027.jpg	49	51	1	i	6	0	1327.34600600088	0.4162639	0.4055434	472.629481982003	0.5	471.3	471.295788009003	1.33369397299975
BM_121	0	1	2	1	100	475.000353752002	1210.jpg	1144.jpg	62	61	1	u	7	1	1118.77805599943	0.304548	0.3089683	476.134542052001	0.5	475	475.000353752002	1.13418829999864
BM_121	0	1	2	1	101	478.504109456	1216.jpg	2229.jpg	20	21	1	u	2	1	1047.02665100194	0.6601012	0.6595056	479.572212153005	0.5	478.5	478.504109456	1.06810269700509
BM_121	0	1	2	1	102	481.707898831999	2249.jpg	1207.jpg	18	22	0	i	2	1	1091.23448299943	0.6800054	0.6471574	482.808759616004	0.5	481.7	481.707898831999	1.10086078400491
BM_121	0	1	2	1	103	491.301523031005	2053.jpg	1255.jpg	24	17	0	i	2	1	777.609737997409	0.6315843	0.6803414	492.104935114003	0.5	491.3	491.301523031005	0.803412082997966
BM_121	0	1	2	1	104	495.005610532004	1144.jpg	1052.jpg	61	58	0	i	7	1	825.51340200007	0.3089683	0.3203627	495.840575811999	0.5	495	495.005610532004	0.834965279995231
BM_121	0	1	2	1	105	498.509550875999	1007.jpg	1027.jpg	54	51	1	u	6	1	913.583311004913	0.3535575	0.4055434	499.444005791003	0.5	498.5	498.509550875999	0.934454915004608
BM_121	0	1	2	1	106	507.503472444005	2041.jpg	2015.jpg	29	25	0	i	3	1	631.661920000624	0.6059526	0.6264144	508.153533208999	0.5	507.5	507.503472444005	0.650060764994123
BM_121	0	1	2	1	107	511.207770861001	2155.jpg	1019.jpg	57	59	0	i	7	1	1151.39162699779	0.3345597	0.3151345	512.375039215003	0.5	511.2	511.207770861001	1.16726835400186
BM_121	0	1	2	1	108	515.495776557	1114.jpg	2154.jpg	45	42	1	u	5	1	1207.39023700298	0.4642154	0.5120925	516.715135810002	1	515.5	515.495776557	1.21935925300204
BM_121	0	1	2	1	109	521.402177905999	2043.jpg	2212.jpg	27	30	0	u	3	0	1052.95932600711	0.6111877	0.6039542	522.470300419001	0.5	521.4	521.402177905999	1.06812251300289
BM_121	0	1	2	1	110	527.508929398005	2249.jpg	1216.jpg	18	20	0	x	2	999	999000	0.6800054	0.6601012	529.010021873	0.5	527.5	527.508929398005	1.50109247499495
BM_121	0	1	2	1	111	531.196727334005	1254.jpg	1182.jpg	46	41	0	u	5	0	514.416426995012	0.4573586	0.5125122	531.730610734005	1	531.2	531.196727334005	0.533883399999468
BM_121	0	1	2	1	112	538.103999309002	2039.jpg	2212.jpg	32	30	0	i	3	1	1095.12408199953	0.5942534	0.6039542	539.222569843005	0.5	538.1	538.103999309002	1.11857053400308
BM_121	0	1	2	1	113	547.397946103003	2010.jpg	1207.jpg	19	22	0	i	2	1	849.187244995846	0.6764241	0.6471574	548.265768205005	0.5	547.4	547.397946103003	0.86782210200181
BM_121	0	1	2	1	114	551.402376935002	1207.jpg	2053.jpg	22	24	1	i	2	0	700.767643997096	0.6471574	0.6315843	552.120118209001	0.5	551.4	551.402376935002	0.717741273998399
BM_121	0	1	2	1	115	556.007434651001	2201.jpg	1060.jpg	44	43	1	u	5	1	655.700389004778	0.4759345	0.4940265	556.674902017003	1	556	556.007434651001	0.667467366001802
BM_121	0	1	2	1	116	559.895311398002	2201.jpg	2128.jpg	44	47	1	u	5	1	783.820648000983	0.4759345	0.446572	560.695645493004	1	559.9	559.895311398002	0.800334095001745
BM_121	0	1	2	1	117	568.004200264004	2043.jpg	2015.jpg	27	25	0	i	3	1	674.932301997615	0.6111877	0.6264144	568.687396263005	0.5	568	568.004200264004	0.683195999001327
BM_121	0	1	2	1	118	572.509747639	2248.jpg	2125.jpg	37	36	0	i	4	1	1153.38680500281	0.5617725	0.5687414	573.677942259004	1	572.5	572.509747639	1.16819462000421
BM_121	0	1	2	1	119	575.996813794001	1009.jpg	2058.jpg	15	16	0	u	1	0	1130.32966200262	0.6926331	0.6834514	577.147751563003	1	576	575.996813794001	1.15093776900176
BM_121	0	1	2	1	120	579.901381326999	1173.jpg	1226.jpg	56	55	0	i	6	1	633.761032004259	0.3416911	0.3437928	580.552129479001	0.5	579.9	579.901381326999	0.650748152002052
BM_121	0	1	2	1	121	583.104732295003	1191.jpg	2015.jpg	26	25	0	i	3	1	598.39233099774	0.6185192	0.6264144	583.722517902002	0.5	583.1	583.104732295003	0.61778560699895
BM_121	0	1	2	1	122	589.395636863999	1115.jpg	1146.jpg	69	66	1	u	8	1	1043.51076199964	0.2271623	0.2401457	590.462787927005	1	589.4	589.395636863999	1.06715106300544
BM_121	0	1	2	1	123	600.908408476003	1127.jpg	2149.jpg	52	53	1	u	6	1	810.714920000464	0.4033364	0.3805978	601.725527941002	0.5	600.9	600.908408476003	0.817119464998541
BM_121	0	1	2	1	124	609.200828478999	2194.jpg	1146.jpg	65	66	1	i	8	0	1302.30480300088	0.2702679	0.2401457	610.518874986003	1	609.2	609.200828478999	1.3180465070036
BM_121	0	1	2	1	125	617.309550561004	1031.jpg	2154.jpg	48	42	1	u	5	1	1073.58299000043	0.4379245	0.5120925	618.395864408005	1	617.3	617.309550561004	1.08631384700129
BM_121	0	1	2	1	126	626.203077172999	2008.jpg	2124.jpg	11	9	1	i	1	0	1156.07966900279	0.7686756	0.777782	627.372579595001	1	626.2	626.203077172999	1.16950242200255
BM_121	0	1	2	1	127	631.709049960999	2058.jpg	2124.jpg	16	9	1	i	1	0	1114.10744600289	0.6834514	0.777782	632.843888105999	1	631.7	631.709049960999	1.13483814500069
BM_121	0	1	2	1	128	636.998304509005	1262.jpg	1228.jpg	72	67	1	u	8	1	1048.81747499894	0.2150577	0.2370447	638.066380910001	1	637	636.998304509005	1.06807640099578
