subjectID	scanner	order	block	run	trial	onsettime	ImageLeft	ImageRight	bidIndexLeft	bidIndexRight	IsleftGo	Response	PairType	Outcome	RT	bidLeft	bidRight	
BOA_106	 0	 2	 02	 1	 1	 2.018754e+00	 Snickers.bmp	 Twist.bmp	 53	 51	 0	 i	 2	 1	 1176.08	 1.67	 1.69	 
BOA_106	 0	 2	 02	 1	 2	 1.001104e+01	 GumiSnakes3.bmp	 ClickBlackWhite3.bmp	 18	 14	 0	 u	 1	 0	 719.79	 4.96	 5.42	 
BOA_106	 0	 2	 02	 1	 3	 1.401562e+01	 ClickBisquit2.bmp	 KinderBuenoWhite2.bmp	 9	 13	 1	 i	 1	 0	 939.21	 5.96	 5.42	 
BOA_106	 0	 2	 02	 1	 4	 1.902110e+01	 WerthersOriginal.bmp	 BabyDoll.bmp	 43	 47	 1	 i	 2	 0	 935.27	 2.64	 2.11	 
BOA_106	 0	 2	 02	 1	 5	 2.801454e+01	 PesekZman.bmp	 Twist.bmp	 44	 51	 0	 u	 2	 0	 644.52	 2.24	 1.69	 
BOA_106	 0	 2	 02	 1	 6	 3.302012e+01	 ClickXLbrown4.bmp	 KifkefMaklot2.bmp	 7	 16	 0	 i	 1	 1	 894.71	 6.38	 5.40	 
BOA_106	 0	 2	 02	 1	 7	 3.600692e+01	 Snickers.bmp	 WerthersOriginal.bmp	 53	 43	 0	 u	 2	 0	 595.90	 1.67	 2.64	 
BOA_106	 0	 2	 02	 1	 8	 4.001135e+01	 ClickBlackWhite3.bmp	 ClickBalls5.bmp	 14	 12	 1	 u	 1	 1	 1175.95	 5.42	 5.44	 
BOA_106	 0	 2	 02	 1	 9	 4.401578e+01	 Twist.bmp	 BabyDoll.bmp	 51	 47	 1	 i	 2	 0	 971.06	 1.69	 2.11	 
BOA_106	 0	 2	 02	 1	 10	 4.701914e+01	 GumiSnakes3.bmp	 Loacker.bmp	 18	 8	 0	 u	 1	 0	 1031.70	 4.96	 6.36	 
BOA_106	 0	 2	 02	 1	 11	 5.200812e+01	 Smarties.bmp	 Halva2.bmp	 6	 55	 1	 u	 4	 1	 778.73	 6.42	 1.51	 
BOA_106	 0	 2	 02	 1	 12	 5.901597e+01	 Snickers.bmp	 Mekupelet.bmp	 53	 49	 0	 i	 2	 1	 826.88	 1.67	 2.00	 
BOA_106	 0	 2	 02	 1	 13	 6.700830e+01	 GumiSnakes3.bmp	 KifkefMaklot2.bmp	 18	 16	 0	 u	 1	 0	 938.53	 4.96	 5.40	 
BOA_106	 0	 2	 02	 1	 14	 7.001163e+01	 Twix.bmp	 Twist.bmp	 50	 51	 0	 i	 2	 1	 919.20	 1.96	 1.69	 
BOA_106	 0	 2	 02	 1	 15	 7.501722e+01	 Loacker.bmp	 CrunchBisquitWhite2.bmp	 8	 15	 1	 i	 1	 0	 1073.61	 6.36	 5.42	 
BOA_106	 0	 2	 02	 1	 16	 8.401062e+01	 ChocolateParaMilk3.bmp	 GumiWine2.bmp	 11	 10	 1	 i	 1	 0	 688.21	 5.80	 5.93	 
BOA_106	 0	 2	 02	 1	 17	 8.901616e+01	 Mekupelet.bmp	 BabyDoll.bmp	 49	 47	 1	 u	 2	 1	 730.67	 2.00	 2.11	 
BOA_106	 0	 2	 02	 1	 18	 9.201964e+01	 KifkefMaklot2.bmp	 CrunchBisquitWhite2.bmp	 16	 15	 1	 i	 1	 0	 999.19	 5.40	 5.42	 
BOA_106	 0	 2	 02	 1	 19	 9.600741e+01	 Taami.bmp	 Twist.bmp	 52	 51	 0	 i	 2	 1	 867.42	 1.69	 1.69	 
BOA_106	 0	 2	 02	 1	 20	 9.901070e+01	 KifkefMaklot2.bmp	 ClickBalls5.bmp	 16	 12	 1	 u	 1	 1	 1120.14	 5.40	 5.44	 
BOA_106	 0	 2	 02	 1	 21	 1.100061e+02	 Tictac.bmp	 Taami.bmp	 54	 52	 1	 u	 2	 1	 1060.75	 1.60	 1.69	 
BOA_106	 0	 2	 02	 1	 22	 1.170143e+02	 GumiWine2.bmp	 Loacker.bmp	 10	 8	 0	 u	 1	 0	 604.57	 5.93	 6.36	 
BOA_106	 0	 2	 02	 1	 23	 1.200176e+02	 CrunchBisquitWhite2.bmp	 ChocolateParaMilk3.bmp	 15	 11	 0	 u	 1	 0	 777.24	 5.42	 5.80	 
BOA_106	 0	 2	 02	 1	 24	 1.300121e+02	 GumiWine2.bmp	 KinderBuenoBrown3.bmp	 10	 17	 0	 u	 1	 0	 654.74	 5.93	 5.36	 
BOA_106	 0	 2	 02	 1	 25	 1.330156e+02	 Mars.bmp	 WerthersOriginal.bmp	 45	 43	 0	 u	 2	 0	 795.26	 2.18	 2.64	 
BOA_106	 0	 2	 02	 1	 26	 1.380211e+02	 GumiWine2.bmp	 ClickBlackWhite3.bmp	 10	 14	 0	 u	 1	 0	 741.75	 5.93	 5.42	 
BOA_106	 0	 2	 02	 1	 27	 1.460134e+02	 BabyDoll.bmp	 Tortit.bmp	 47	 48	 0	 u	 2	 0	 821.48	 2.11	 2.02	 
BOA_106	 0	 2	 02	 1	 28	 1.560079e+02	 Loacker.bmp	 KinderBuenoWhite2.bmp	 8	 13	 1	 i	 1	 0	 1002.92	 6.36	 5.42	 
BOA_106	 0	 2	 02	 1	 29	 1.650180e+02	 ChocolateParaCookies5.bmp	 Halva2.bmp	 5	 55	 1	 u	 4	 1	 600.88	 6.51	 1.51	 
BOA_106	 0	 2	 02	 1	 30	 1.680213e+02	 BabyDoll.bmp	 ClickXLwhite4.bmp	 47	 46	 0	 u	 2	 0	 709.51	 2.11	 2.13	 
BOA_106	 0	 2	 02	 1	 31	 1.720091e+02	 GumiSnakes3.bmp	 ChocolateParaMilk3.bmp	 18	 11	 0	 u	 1	 0	 649.68	 4.96	 5.80	 
BOA_106	 0	 2	 02	 1	 32	 1.750126e+02	 ChocolateParaCookies5.bmp	 Egozi.bmp	 5	 56	 1	 u	 4	 1	 694.28	 6.51	 1.31	 
BOA_106	 0	 2	 02	 1	 33	 1.780158e+02	 Taami.bmp	 Mekupelet.bmp	 52	 49	 0	 i	 2	 1	 643.02	 1.69	 2.00	 
BOA_106	 0	 2	 02	 1	 34	 1.820203e+02	 ClickBisquit2.bmp	 GumiWine2.bmp	 9	 10	 1	 i	 1	 0	 734.49	 5.96	 5.93	 
BOA_106	 0	 2	 02	 1	 35	 1.920148e+02	 Mars.bmp	 Twist.bmp	 45	 51	 0	 i	 2	 1	 1292.00	 2.18	 1.69	 
BOA_106	 0	 2	 02	 1	 36	 2.030105e+02	 ClickBisquit2.bmp	 ClickXLbrown4.bmp	 9	 7	 1	 u	 1	 1	 1312.33	 5.96	 6.38	 
BOA_106	 0	 2	 02	 1	 37	 2.060139e+02	 ClickBalls5.bmp	 ChocolateParaMilk3.bmp	 12	 11	 0	 u	 1	 0	 772.91	 5.44	 5.80	 
BOA_106	 0	 2	 02	 1	 38	 2.090173e+02	 Tortit.bmp	 Taami.bmp	 48	 52	 1	 u	 2	 1	 713.51	 2.02	 1.69	 
BOA_106	 0	 2	 02	 1	 39	 2.120206e+02	 PesekZman.bmp	 ClickXLwhite4.bmp	 44	 46	 0	 i	 2	 1	 1158.25	 2.24	 2.13	 
BOA_106	 0	 2	 02	 1	 40	 2.180106e+02	 Tortit.bmp	 Snickers.bmp	 48	 53	 1	 u	 2	 1	 1048.19	 2.02	 1.67	 
BOA_106	 0	 2	 02	 1	 41	 2.210140e+02	 KinderBuenoBrown3.bmp	 ClickXLbrown4.bmp	 17	 7	 1	 u	 1	 1	 948.87	 5.36	 6.38	 
BOA_106	 0	 2	 02	 1	 42	 2.250185e+02	 WerthersOriginal.bmp	 PesekZman.bmp	 43	 44	 1	 i	 2	 0	 792.32	 2.64	 2.24	 
BOA_106	 0	 2	 02	 1	 43	 2.300075e+02	 CrunchBisquitWhite2.bmp	 ClickBisquit2.bmp	 15	 9	 0	 u	 1	 0	 955.36	 5.42	 5.96	 
BOA_106	 0	 2	 02	 1	 44	 2.370153e+02	 KinderBuenoBrown3.bmp	 KinderBuenoWhite2.bmp	 17	 13	 1	 u	 1	 1	 875.58	 5.36	 5.42	 
BOA_106	 0	 2	 02	 1	 45	 2.400187e+02	 Loacker.bmp	 ClickXLbrown4.bmp	 8	 7	 1	 i	 1	 0	 1218.12	 6.36	 6.38	 
BOA_106	 0	 2	 02	 1	 46	 2.430220e+02	 PesekZman.bmp	 Tortit.bmp	 44	 48	 0	 u	 2	 0	 676.85	 2.24	 2.02	 
BOA_106	 0	 2	 02	 1	 47	 2.460087e+02	 Twix.bmp	 Mekupelet.bmp	 50	 49	 0	 i	 2	 1	 642.17	 1.96	 2.00	 
BOA_106	 0	 2	 02	 1	 48	 2.530165e+02	 ClickXLwhite4.bmp	 Taami.bmp	 46	 52	 1	 u	 2	 1	 698.33	 2.13	 1.69	 
BOA_106	 0	 2	 02	 1	 49	 2.560199e+02	 ClickBlackWhite3.bmp	 CrunchBisquitWhite2.bmp	 14	 15	 1	 u	 1	 1	 1142.95	 5.42	 5.42	 
BOA_106	 0	 2	 02	 1	 50	 2.590063e+02	 ChocolateParaMilk3.bmp	 ClickXLbrown4.bmp	 11	 7	 1	 i	 1	 0	 839.23	 5.80	 6.38	 
BOA_106	 0	 2	 02	 1	 51	 2.620100e+02	 Loacker.bmp	 ClickBalls5.bmp	 8	 12	 1	 u	 1	 1	 856.84	 6.36	 5.44	 
BOA_106	 0	 2	 02	 1	 52	 2.650133e+02	 KifkefMaklot2.bmp	 GumiWine2.bmp	 16	 10	 1	 i	 1	 0	 645.49	 5.40	 5.93	 
BOA_106	 0	 2	 02	 1	 53	 2.730053e+02	 ClickXLbrown4.bmp	 ClickBlackWhite3.bmp	 7	 14	 0	 i	 1	 1	 1109.54	 6.38	 5.42	 
BOA_106	 0	 2	 02	 1	 54	 2.790124e+02	 Mekupelet.bmp	 PesekZman.bmp	 49	 44	 1	 u	 2	 1	 904.45	 2.00	 2.24	 
BOA_106	 0	 2	 02	 1	 55	 2.820156e+02	 Tictac.bmp	 PesekZman.bmp	 54	 44	 1	 i	 2	 0	 899.20	 1.60	 2.24	 
BOA_106	 0	 2	 02	 1	 56	 2.860199e+02	 ClickBisquit2.bmp	 GumiSnakes3.bmp	 9	 18	 1	 i	 1	 0	 782.94	 5.96	 4.96	 
BOA_106	 0	 2	 02	 1	 57	 2.890065e+02	 KinderBuenoWhite2.bmp	 ClickBlackWhite3.bmp	 13	 14	 0	 u	 1	 0	 924.32	 5.42	 5.42	 
BOA_106	 0	 2	 02	 1	 58	 2.950136e+02	 Twix.bmp	 Tictac.bmp	 50	 54	 0	 i	 2	 1	 597.25	 1.96	 1.60	 
BOA_106	 0	 2	 02	 1	 59	 2.980169e+02	 Egozi.bmp	 Smarties.bmp	 56	 6	 0	 i	 4	 1	 770.28	 1.31	 6.42	 
BOA_106	 0	 2	 02	 1	 60	 3.040067e+02	 KinderBuenoBrown3.bmp	 GumiSnakes3.bmp	 17	 18	 1	 i	 1	 0	 700.14	 5.36	 4.96	 
BOA_106	 0	 2	 02	 1	 61	 3.130170e+02	 Taami.bmp	 WerthersOriginal.bmp	 52	 43	 0	 u	 2	 0	 657.82	 1.69	 2.64	 
BOA_106	 0	 2	 02	 1	 62	 3.160204e+02	 KinderBuenoWhite2.bmp	 ChocolateParaMilk3.bmp	 13	 11	 0	 u	 1	 0	 1182.39	 5.42	 5.80	 
BOA_106	 0	 2	 02	 1	 63	 3.190070e+02	 Tictac.bmp	 Mars.bmp	 54	 45	 1	 u	 2	 1	 643.79	 1.60	 2.18	 
BOA_106	 0	 2	 02	 1	 64	 3.250138e+02	 CrunchBisquitWhite2.bmp	 KinderBuenoBrown3.bmp	 15	 17	 0	 u	 1	 0	 1181.07	 5.42	 5.36	 
BOA_106	 0	 2	 02	 1	 65	 3.300194e+02	 ClickBisquit2.bmp	 ClickBalls5.bmp	 9	 12	 1	 u	 1	 1	 959.42	 5.96	 5.44	 
BOA_106	 0	 2	 02	 1	 66	 3.330228e+02	 Twix.bmp	 ClickXLwhite4.bmp	 50	 46	 0	 i	 2	 1	 708.05	 1.96	 2.13	 
BOA_106	 0	 2	 02	 1	 67	 3.390129e+02	 Twix.bmp	 WerthersOriginal.bmp	 50	 43	 0	 u	 2	 0	 1125.98	 1.96	 2.64	 
BOA_106	 0	 2	 02	 1	 68	 3.420162e+02	 Mekupelet.bmp	 Mars.bmp	 49	 45	 1	 u	 2	 1	 786.61	 2.00	 2.18	 
BOA_106	 0	 2	 02	 1	 69	 3.450195e+02	 KinderBuenoWhite2.bmp	 KifkefMaklot2.bmp	 13	 16	 0	 x	 1	 999	 999000.00	 5.42	 5.40	 
BOA_106	 0	 2	 02	 1	 70	 3.490074e+02	 Snickers.bmp	 ClickXLwhite4.bmp	 53	 46	 0	 i	 2	 1	 691.48	 1.67	 2.13	 
BOA_106	 0	 2	 02	 1	 71	 3.530118e+02	 Mars.bmp	 Tortit.bmp	 45	 48	 0	 i	 2	 1	 719.00	 2.18	 2.02	 
BOA_106	 0	 2	 02	 1	 72	 3.580174e+02	 Tictac.bmp	 BabyDoll.bmp	 54	 47	 1	 u	 2	 1	 1017.41	 1.60	 2.11	 
BOA_106	 0	 2	 02	 1	 73	 3.650086e+02	 Tictac.bmp	 Snickers.bmp	 54	 53	 1	 u	 2	 1	 698.26	 1.60	 1.67	 
BOA_106	 0	 2	 02	 1	 74	 3.710153e+02	 ClickXLwhite4.bmp	 Mars.bmp	 46	 45	 1	 u	 2	 1	 707.54	 2.13	 2.18	 
BOA_106	 0	 2	 02	 1	 75	 3.750199e+02	 Twix.bmp	 Tortit.bmp	 50	 48	 0	 i	 2	 1	 566.98	 1.96	 2.02	 
BOA_106	 0	 2	 02	 1	 76	 3.780062e+02	 KinderBuenoBrown3.bmp	 ClickBalls5.bmp	 17	 12	 1	 u	 1	 1	 684.61	 5.36	 5.44	 
