subjectID	scanner	order	block	run	trial	onsettime	ImageLeft	ImageRight	bidIndexLeft	bidIndexRight	IsleftGo	Response	PairType	Outcome	RT	bidLeft	bidRight	
BOA_119	 0	 1	 01	 1	 1	 2.018714e+00	 ClickXLwhite4.bmp	 BisliOnion.bmp	 17	 10	 0	 i	 1	 1	 662.52	 4.42	 4.89	 
BOA_119	 0	 1	 01	 1	 2	 1.001115e+01	 Twix.bmp	 KinderJoy.bmp	 54	 45	 0	 u	 2	 0	 678.08	 1.76	 2.73	 
BOA_119	 0	 1	 01	 1	 3	 1.401555e+01	 BisliGrill.bmp	 TapuchipsCrunch.bmp	 11	 7	 0	 u	 1	 0	 617.68	 4.87	 5.00	 
BOA_119	 0	 1	 01	 1	 4	 1.902111e+01	 Hit.bmp	 TapuchipsCrunch.bmp	 16	 7	 0	 i	 1	 1	 580.12	 4.71	 5.00	 
BOA_119	 0	 1	 01	 1	 5	 2.801457e+01	 GumiWine2.bmp	 Twix.bmp	 44	 54	 1	 u	 2	 1	 658.66	 2.73	 1.76	 
BOA_119	 0	 1	 01	 1	 6	 3.302022e+01	 SkittlesFruits2.bmp	 Shugi.bmp	 43	 53	 0	 i	 2	 1	 725.01	 2.76	 2.27	 
BOA_119	 0	 1	 01	 1	 7	 3.602363e+01	 Smarties.bmp	 Tortit.bmp	 50	 51	 1	 i	 2	 0	 801.60	 2.67	 2.62	 
BOA_119	 0	 1	 01	 1	 8	 4.001132e+01	 Bounty.bmp	 Mentos.bmp	 47	 49	 1	 u	 2	 1	 581.91	 2.67	 2.67	 
BOA_119	 0	 1	 01	 1	 9	 4.401593e+01	 BisliGrill.bmp	 ClickBalls5.bmp	 11	 18	 0	 u	 1	 0	 577.30	 4.87	 4.40	 
BOA_119	 0	 1	 01	 1	 10	 4.701918e+01	 Hit.bmp	 Tapuchips.bmp	 16	 12	 0	 i	 1	 1	 526.05	 4.71	 4.84	 
BOA_119	 0	 1	 01	 1	 11	 5.200820e+01	 HappyHippo.bmp	 SkittlesFruits2.bmp	 52	 43	 1	 u	 2	 1	 561.04	 2.29	 2.76	 
BOA_119	 0	 1	 01	 1	 12	 5.901596e+01	 Smarties.bmp	 Mentos.bmp	 50	 49	 1	 u	 2	 1	 537.27	 2.67	 2.67	 
BOA_119	 0	 1	 01	 1	 13	 6.700799e+01	 Mars.bmp	 KinderJoy.bmp	 46	 45	 0	 u	 2	 0	 721.25	 2.73	 2.73	 
BOA_119	 0	 1	 01	 1	 14	 7.001166e+01	 ClickBlackWhite3.bmp	 Popco.bmp	 15	 14	 1	 u	 1	 1	 661.58	 4.73	 4.82	 
BOA_119	 0	 1	 01	 1	 15	 7.501734e+01	 Cheetos.bmp	 BisliGrill.bmp	 13	 11	 1	 i	 1	 0	 463.89	 4.82	 4.87	 
BOA_119	 0	 1	 01	 1	 16	 8.401075e+01	 Smarties.bmp	 BambaSweet.bmp	 50	 48	 1	 i	 2	 0	 518.48	 2.67	 2.67	 
BOA_119	 0	 1	 01	 1	 17	 8.901637e+01	 Keifli.bmp	 KashitSour.bmp	 6	 55	 1	 u	 4	 1	 600.86	 5.47	 1.73	 
BOA_119	 0	 1	 01	 1	 18	 9.201972e+01	 Bounty.bmp	 Mars.bmp	 47	 46	 1	 u	 2	 1	 653.52	 2.67	 2.73	 
BOA_119	 0	 1	 01	 1	 19	 9.602413e+01	 ClickBalls5.bmp	 ClickXLwhite4.bmp	 18	 17	 1	 u	 1	 1	 553.10	 4.40	 4.42	 
BOA_119	 0	 1	 01	 1	 20	 9.901082e+01	 BambaSweet.bmp	 Shugi.bmp	 48	 53	 0	 i	 2	 1	 558.42	 2.67	 2.27	 
BOA_119	 0	 1	 01	 1	 21	 1.100232e+02	 HappyHippo.bmp	 Mentos.bmp	 52	 49	 1	 u	 2	 1	 682.08	 2.29	 2.67	 
BOA_119	 0	 1	 01	 1	 22	 1.170144e+02	 SkittlesFruits2.bmp	 GumiWine2.bmp	 43	 44	 0	 i	 2	 1	 738.80	 2.76	 2.73	 
BOA_119	 0	 1	 01	 1	 23	 1.200177e+02	 Cheetos.bmp	 DoritosGrill.bmp	 13	 9	 1	 i	 1	 0	 663.52	 4.82	 4.91	 
BOA_119	 0	 1	 01	 1	 24	 1.300123e+02	 Tortit.bmp	 GumiWine2.bmp	 51	 44	 0	 i	 2	 1	 796.92	 2.62	 2.73	 
BOA_119	 0	 1	 01	 1	 25	 1.330157e+02	 SkittlesFruits2.bmp	 Smarties.bmp	 43	 50	 0	 u	 2	 0	 745.55	 2.76	 2.67	 
BOA_119	 0	 1	 01	 1	 26	 1.380213e+02	 BambaSweet.bmp	 GumiWine2.bmp	 48	 44	 0	 u	 2	 0	 707.96	 2.67	 2.73	 
BOA_119	 0	 1	 01	 1	 27	 1.460135e+02	 ClickBalls5.bmp	 Hit.bmp	 18	 16	 1	 u	 1	 1	 539.69	 4.40	 4.71	 
BOA_119	 0	 1	 01	 1	 28	 1.560079e+02	 BambaSweet.bmp	 Bounty.bmp	 48	 47	 0	 i	 2	 1	 705.38	 2.67	 2.67	 
BOA_119	 0	 1	 01	 1	 29	 1.650183e+02	 KinderJoy.bmp	 Tortit.bmp	 45	 51	 1	 i	 2	 0	 766.95	 2.73	 2.62	 
BOA_119	 0	 1	 01	 1	 30	 1.680216e+02	 TapuchipsCrunch.bmp	 DoritosGrill.bmp	 7	 9	 1	 u	 1	 1	 683.66	 5.00	 4.91	 
BOA_119	 0	 1	 01	 1	 31	 1.720095e+02	 Twix.bmp	 Smarties.bmp	 54	 50	 0	 u	 2	 0	 895.78	 1.76	 2.67	 
BOA_119	 0	 1	 01	 1	 32	 1.750127e+02	 Mentos.bmp	 GumiWine2.bmp	 49	 44	 0	 i	 2	 1	 908.54	 2.67	 2.73	 
BOA_119	 0	 1	 01	 1	 33	 1.780161e+02	 Cheetos.bmp	 ClickXLwhite4.bmp	 13	 17	 1	 u	 1	 1	 601.10	 4.82	 4.42	 
BOA_119	 0	 1	 01	 1	 34	 1.820205e+02	 KinderJoy.bmp	 SkittlesFruits2.bmp	 45	 43	 1	 i	 2	 0	 772.69	 2.73	 2.76	 
BOA_119	 0	 1	 01	 1	 35	 1.920151e+02	 HappyHippo.bmp	 Twix.bmp	 52	 54	 1	 u	 2	 1	 1002.14	 2.29	 1.76	 
BOA_119	 0	 1	 01	 1	 36	 2.030108e+02	 Shugi.bmp	 Twix.bmp	 53	 54	 1	 u	 2	 1	 806.48	 2.27	 1.76	 
BOA_119	 0	 1	 01	 1	 37	 2.060142e+02	 ChocolateParaMarir2.bmp	 BisliOnion.bmp	 8	 10	 0	 i	 1	 1	 539.08	 4.98	 4.89	 
BOA_119	 0	 1	 01	 1	 38	 2.090176e+02	 ClickBalls5.bmp	 Popco.bmp	 18	 14	 1	 u	 1	 1	 703.68	 4.40	 4.82	 
BOA_119	 0	 1	 01	 1	 39	 2.120209e+02	 Hit.bmp	 Cheetos.bmp	 16	 13	 0	 i	 1	 1	 572.34	 4.71	 4.82	 
BOA_119	 0	 1	 01	 1	 40	 2.180110e+02	 Tapuchips.bmp	 DoritosGrill.bmp	 12	 9	 1	 u	 1	 1	 630.26	 4.84	 4.91	 
BOA_119	 0	 1	 01	 1	 41	 2.210143e+02	 TapuchipsCrunch.bmp	 Popco.bmp	 7	 14	 1	 u	 1	 1	 554.98	 5.00	 4.82	 
BOA_119	 0	 1	 01	 1	 42	 2.250188e+02	 Tapuchips.bmp	 ClickXLwhite4.bmp	 12	 17	 1	 u	 1	 1	 646.42	 4.84	 4.42	 
BOA_119	 0	 1	 01	 1	 43	 2.300075e+02	 HappyHippo.bmp	 BambaSweet.bmp	 52	 48	 1	 i	 2	 0	 505.76	 2.29	 2.67	 
BOA_119	 0	 1	 01	 1	 44	 2.370156e+02	 KashitSour.bmp	 Apropo.bmp	 55	 5	 0	 i	 4	 1	 529.62	 1.73	 5.51	 
BOA_119	 0	 1	 01	 1	 45	 2.400190e+02	 Tortit.bmp	 HappyHippo.bmp	 51	 52	 0	 u	 2	 0	 958.26	 2.62	 2.29	 
BOA_119	 0	 1	 01	 1	 46	 2.430223e+02	 ChocolateParaMarir2.bmp	 Cheetos.bmp	 8	 13	 0	 i	 1	 1	 546.95	 4.98	 4.82	 
BOA_119	 0	 1	 01	 1	 47	 2.460090e+02	 Tortit.bmp	 Shugi.bmp	 51	 53	 0	 i	 2	 1	 736.28	 2.62	 2.27	 
BOA_119	 0	 1	 01	 1	 48	 2.530169e+02	 BisliOnion.bmp	 BisliGrill.bmp	 10	 11	 1	 u	 1	 1	 720.37	 4.89	 4.87	 
BOA_119	 0	 1	 01	 1	 49	 2.560202e+02	 KinderJoy.bmp	 BambaSweet.bmp	 45	 48	 1	 u	 2	 1	 997.01	 2.73	 2.67	 
BOA_119	 0	 1	 01	 1	 50	 2.590066e+02	 Tapuchips.bmp	 Popco.bmp	 12	 14	 1	 u	 1	 1	 634.68	 4.84	 4.82	 
BOA_119	 0	 1	 01	 1	 51	 2.620102e+02	 Popco.bmp	 Cheetos.bmp	 14	 13	 0	 i	 1	 1	 535.02	 4.82	 4.82	 
BOA_119	 0	 1	 01	 1	 52	 2.650136e+02	 Mars.bmp	 Smarties.bmp	 46	 50	 0	 u	 2	 0	 835.67	 2.73	 2.67	 
BOA_119	 0	 1	 01	 1	 53	 2.730226e+02	 Mentos.bmp	 KinderJoy.bmp	 49	 45	 0	 i	 2	 1	 794.68	 2.67	 2.73	 
BOA_119	 0	 1	 01	 1	 54	 2.790127e+02	 Hit.bmp	 ClickBlackWhite3.bmp	 16	 15	 0	 i	 1	 1	 580.59	 4.71	 4.73	 
BOA_119	 0	 1	 01	 1	 55	 2.820160e+02	 Tapuchips.bmp	 BisliGrill.bmp	 12	 11	 1	 i	 1	 0	 977.22	 4.84	 4.87	 
BOA_119	 0	 1	 01	 1	 56	 2.860205e+02	 HispusimShatiah.bmp	 Apropo.bmp	 56	 5	 0	 i	 4	 1	 732.77	 1.69	 5.51	 
BOA_119	 0	 1	 01	 1	 57	 2.890239e+02	 Shugi.bmp	 Mentos.bmp	 53	 49	 1	 u	 2	 1	 681.35	 2.27	 2.67	 
BOA_119	 0	 1	 01	 1	 58	 2.950139e+02	 ClickXLwhite4.bmp	 TapuchipsCrunch.bmp	 17	 7	 0	 i	 1	 1	 531.32	 4.42	 5.00	 
BOA_119	 0	 1	 01	 1	 59	 2.980172e+02	 ClickBlackWhite3.bmp	 BisliGrill.bmp	 15	 11	 1	 i	 1	 0	 848.00	 4.73	 4.87	 
BOA_119	 0	 1	 01	 1	 60	 3.040240e+02	 DoritosGrill.bmp	 ClickBlackWhite3.bmp	 9	 15	 0	 i	 1	 1	 1113.23	 4.91	 4.73	 
BOA_119	 0	 1	 01	 1	 61	 3.130175e+02	 ClickBalls5.bmp	 ChocolateParaMarir2.bmp	 18	 8	 1	 u	 1	 1	 743.77	 4.40	 4.98	 
BOA_119	 0	 1	 01	 1	 62	 3.160208e+02	 Bounty.bmp	 SkittlesFruits2.bmp	 47	 43	 1	 i	 2	 0	 884.38	 2.67	 2.76	 
BOA_119	 0	 1	 01	 1	 63	 3.190072e+02	 Bounty.bmp	 Twix.bmp	 47	 54	 1	 u	 2	 1	 681.99	 2.67	 1.76	 
BOA_119	 0	 1	 01	 1	 64	 3.250142e+02	 HispusimShatiah.bmp	 Keifli.bmp	 56	 6	 0	 i	 4	 1	 899.05	 1.69	 5.47	 
BOA_119	 0	 1	 01	 1	 65	 3.300198e+02	 DoritosGrill.bmp	 BisliOnion.bmp	 9	 10	 0	 i	 1	 1	 925.44	 4.91	 4.89	 
BOA_119	 0	 1	 01	 1	 66	 3.330232e+02	 Mars.bmp	 HappyHippo.bmp	 46	 52	 0	 i	 2	 1	 1002.08	 2.73	 2.29	 
BOA_119	 0	 1	 01	 1	 67	 3.390132e+02	 ClickBlackWhite3.bmp	 ClickXLwhite4.bmp	 15	 17	 1	 u	 1	 1	 756.03	 4.73	 4.42	 
BOA_119	 0	 1	 01	 1	 68	 3.420166e+02	 Tortit.bmp	 Bounty.bmp	 51	 47	 0	 i	 2	 1	 792.64	 2.62	 2.67	 
BOA_119	 0	 1	 01	 1	 69	 3.450200e+02	 ChocolateParaMarir2.bmp	 TapuchipsCrunch.bmp	 8	 7	 0	 i	 1	 1	 805.24	 4.98	 5.00	 
BOA_119	 0	 1	 01	 1	 70	 3.490075e+02	 Popco.bmp	 BisliOnion.bmp	 14	 10	 0	 i	 1	 1	 649.69	 4.82	 4.89	 
BOA_119	 0	 1	 01	 1	 71	 3.530123e+02	 Shugi.bmp	 Mars.bmp	 53	 46	 1	 u	 2	 1	 756.96	 2.27	 2.73	 
BOA_119	 0	 1	 01	 1	 72	 3.580178e+02	 ChocolateParaMarir2.bmp	 ClickBlackWhite3.bmp	 8	 15	 0	 i	 1	 1	 695.38	 4.98	 4.73	 
BOA_119	 0	 1	 01	 1	 73	 3.650090e+02	 Tapuchips.bmp	 ChocolateParaMarir2.bmp	 12	 8	 1	 u	 1	 1	 536.23	 4.84	 4.98	 
BOA_119	 0	 1	 01	 1	 74	 3.710158e+02	 GumiWine2.bmp	 Mars.bmp	 44	 46	 1	 u	 2	 1	 625.42	 2.73	 2.73	 
BOA_119	 0	 1	 01	 1	 75	 3.750202e+02	 DoritosGrill.bmp	 ClickBalls5.bmp	 9	 18	 0	 u	 1	 0	 1052.97	 4.91	 4.40	 
BOA_119	 0	 1	 01	 1	 76	 3.780236e+02	 Hit.bmp	 BisliOnion.bmp	 16	 10	 0	 i	 1	 1	 665.59	 4.71	 4.89	 
