subjectID	scanner	order	block	run	trial	onsettime	ImageLeft	ImageRight	bidIndexLeft	bidIndexRight	IsleftGo	Response	PairType	Outcome	RT	bidLeft	bidRight	
BOA_110	 0	 2	 01	 1	 1	 2.018738e+00	 Kitkat.bmp	 KinderBuenoWhite2.bmp	 10	 9	 0	 u	 1	 0	 1199.71	 6.96	 6.96	 
BOA_110	 0	 2	 01	 1	 2	 8.025456e+00	 BisliPizza3.bmp	 ChocolateParaSucariotKoftzot2.bmp	 11	 7	 1	 u	 1	 1	 969.00	 6.00	 7.00	 
BOA_110	 0	 2	 01	 1	 3	 1.202993e+01	 BisliGrill.bmp	 Kitkat.bmp	 8	 10	 1	 u	 1	 1	 756.52	 6.98	 6.96	 
BOA_110	 0	 2	 01	 1	 4	 1.601770e+01	 CrunchShokoVanil.bmp	 TapuchipsCrunch.bmp	 13	 14	 0	 i	 1	 1	 840.75	 5.98	 5.93	 
BOA_110	 0	 2	 01	 1	 5	 2.901567e+01	 BisliGrill.bmp	 CrunchShokoVanil.bmp	 8	 13	 1	 u	 1	 1	 762.78	 6.98	 5.98	 
BOA_110	 0	 2	 01	 1	 6	 3.602356e+01	 KinderBuenoWhite2.bmp	 CrunchShokoVanil.bmp	 9	 13	 1	 i	 1	 0	 810.89	 6.96	 5.98	 
BOA_110	 0	 2	 01	 1	 7	 3.902695e+01	 TapuchipsCrunch.bmp	 CrunchBisquitWhite2.bmp	 14	 15	 1	 u	 1	 1	 775.50	 5.93	 5.93	 
BOA_110	 0	 2	 01	 1	 8	 4.203028e+01	 Dubonim.bmp	 Mars.bmp	 47	 46	 0	 i	 2	 1	 1204.17	 3.71	 3.71	 
BOA_110	 0	 2	 01	 1	 9	 4.902150e+01	 Mars.bmp	 Popco.bmp	 46	 45	 1	 i	 2	 0	 988.95	 3.71	 3.73	 
BOA_110	 0	 2	 01	 1	 10	 5.402708e+01	 Tortit.bmp	 Tictac.bmp	 50	 54	 0	 u	 2	 0	 695.38	 2.71	 2.56	 
BOA_110	 0	 2	 01	 1	 11	 5.703036e+01	 KashitSour.bmp	 Egozi.bmp	 53	 48	 0	 u	 2	 0	 964.09	 2.67	 3.69	 
BOA_110	 0	 2	 01	 1	 12	 6.101805e+01	 Kitkat.bmp	 DoritosGrill.bmp	 10	 17	 0	 u	 1	 0	 640.40	 6.96	 5.91	 
BOA_110	 0	 2	 01	 1	 13	 6.902723e+01	 HispusimShatiah.bmp	 Tictac.bmp	 52	 54	 0	 u	 2	 0	 799.23	 2.69	 2.56	 
BOA_110	 0	 2	 01	 1	 14	 7.601840e+01	 CrunchBisquitWhite2.bmp	 KinderBuenoWhite2.bmp	 15	 9	 0	 i	 1	 1	 1016.05	 5.93	 6.96	 
BOA_110	 0	 2	 01	 1	 15	 8.002280e+01	 HispusimShatiah.bmp	 Mentos.bmp	 52	 51	 0	 u	 2	 0	 923.68	 2.69	 2.69	 
BOA_110	 0	 2	 01	 1	 16	 8.402744e+01	 Kitkat.bmp	 TapuchipsCrunch.bmp	 10	 14	 0	 u	 1	 0	 839.01	 6.96	 5.93	 
BOA_110	 0	 2	 01	 1	 17	 8.701382e+01	 ClickXLbrown4.bmp	 Keifli.bmp	 6	 56	 1	 u	 4	 1	 1260.63	 7.00	 1.56	 
BOA_110	 0	 2	 01	 1	 18	 9.201966e+01	 Dubonim.bmp	 Egozi.bmp	 47	 48	 0	 x	 2	 999	 999000.00	 3.71	 3.69	 
BOA_110	 0	 2	 01	 1	 19	 9.802630e+01	 Tortit.bmp	 Cheetos.bmp	 50	 43	 0	 u	 2	 0	 1120.15	 2.71	 3.76	 
BOA_110	 0	 2	 01	 1	 20	 1.030153e+02	 Popco.bmp	 Cheetos.bmp	 45	 43	 0	 u	 2	 0	 1027.15	 3.73	 3.76	 
BOA_110	 0	 2	 01	 1	 21	 1.080208e+02	 KinderBuenoWhite2.bmp	 ChocolateParaSucariotKoftzot2.bmp	 9	 7	 1	 u	 1	 1	 909.60	 6.96	 7.00	 
BOA_110	 0	 2	 01	 1	 22	 1.150287e+02	 Cheetos.bmp	 HispusimShatiah.bmp	 43	 52	 1	 i	 2	 0	 893.72	 3.76	 2.69	 
BOA_110	 0	 2	 01	 1	 23	 1.250232e+02	 Cheetos.bmp	 KashitSour.bmp	 43	 53	 1	 i	 2	 0	 995.24	 3.76	 2.67	 
BOA_110	 0	 2	 01	 1	 24	 1.300289e+02	 Egozi.bmp	 HispusimShatiah.bmp	 48	 52	 1	 i	 2	 0	 1133.59	 3.69	 2.69	 
BOA_110	 0	 2	 01	 1	 25	 1.330155e+02	 Cheetos.bmp	 Dubonim.bmp	 43	 47	 1	 i	 2	 0	 1442.94	 3.76	 3.71	 
BOA_110	 0	 2	 01	 1	 26	 1.360189e+02	 HappyHippo.bmp	 DoritosGrill.bmp	 12	 17	 0	 u	 1	 0	 855.58	 6.00	 5.91	 
BOA_110	 0	 2	 01	 1	 27	 1.440278e+02	 TapuchipsCrunch.bmp	 HappyHippo.bmp	 14	 12	 1	 i	 1	 0	 782.61	 5.93	 6.00	 
BOA_110	 0	 2	 01	 1	 28	 1.480157e+02	 BisliGrill.bmp	 HappyHippo.bmp	 8	 12	 1	 i	 1	 0	 538.75	 6.98	 6.00	 
BOA_110	 0	 2	 01	 1	 29	 1.530213e+02	 Tictac.bmp	 SkittlesFruits2.bmp	 54	 44	 1	 i	 2	 0	 789.17	 2.56	 3.73	 
BOA_110	 0	 2	 01	 1	 30	 1.610302e+02	 Popco.bmp	 BabyDoll.bmp	 45	 49	 0	 u	 2	 0	 828.24	 3.73	 3.69	 
BOA_110	 0	 2	 01	 1	 31	 1.640169e+02	 BisliPizza3.bmp	 CrunchShokoVanil.bmp	 11	 13	 1	 u	 1	 1	 1257.57	 6.00	 5.98	 
BOA_110	 0	 2	 01	 1	 32	 1.690225e+02	 BabyDoll.bmp	 Tortit.bmp	 49	 50	 1	 i	 2	 0	 1019.96	 3.69	 2.71	 
BOA_110	 0	 2	 01	 1	 33	 1.790170e+02	 SkittlesFruits2.bmp	 Egozi.bmp	 44	 48	 0	 x	 2	 999	 999000.00	 3.73	 3.69	 
BOA_110	 0	 2	 01	 1	 34	 1.880271e+02	 CrunchBisquitWhite2.bmp	 BisliGrill.bmp	 15	 8	 0	 i	 1	 1	 815.30	 5.93	 6.98	 
BOA_110	 0	 2	 01	 1	 35	 1.920147e+02	 BabyDoll.bmp	 HispusimShatiah.bmp	 49	 52	 1	 i	 2	 0	 811.72	 3.69	 2.69	 
BOA_110	 0	 2	 01	 1	 36	 1.960194e+02	 Popco.bmp	 Egozi.bmp	 45	 48	 0	 u	 2	 0	 1215.05	 3.73	 3.69	 
BOA_110	 0	 2	 01	 1	 37	 1.990229e+02	 ClickXLbrown4.bmp	 Halva2.bmp	 6	 55	 1	 u	 4	 1	 1171.57	 7.00	 1.58	 
BOA_110	 0	 2	 01	 1	 38	 2.030274e+02	 DoritosGrill.bmp	 BambaNugat.bmp	 17	 18	 1	 u	 1	 1	 1367.10	 5.91	 5.91	 
BOA_110	 0	 2	 01	 1	 39	 2.090173e+02	 KinderBuenoBrown3.bmp	 Keifli.bmp	 5	 56	 1	 u	 4	 1	 745.12	 7.02	 1.56	 
BOA_110	 0	 2	 01	 1	 40	 2.130218e+02	 HispusimShatiah.bmp	 Mars.bmp	 52	 46	 0	 u	 2	 0	 1012.67	 2.69	 3.71	 
BOA_110	 0	 2	 01	 1	 41	 2.160252e+02	 BisliOnion.bmp	 Kitkat.bmp	 16	 10	 1	 i	 1	 0	 1393.25	 5.93	 6.96	 
BOA_110	 0	 2	 01	 1	 42	 2.200297e+02	 DoritosGrill.bmp	 ChocolateParaSucariotKoftzot2.bmp	 17	 7	 1	 u	 1	 1	 812.79	 5.91	 7.00	 
BOA_110	 0	 2	 01	 1	 43	 2.250185e+02	 Mentos.bmp	 KashitSour.bmp	 51	 53	 1	 i	 2	 0	 1135.90	 2.69	 2.67	 
BOA_110	 0	 2	 01	 1	 44	 2.320265e+02	 Mars.bmp	 Tortit.bmp	 46	 50	 1	 i	 2	 0	 1015.96	 3.71	 2.71	 
BOA_110	 0	 2	 01	 1	 45	 2.350298e+02	 SkittlesFruits2.bmp	 Mentos.bmp	 44	 51	 0	 x	 2	 999	 999000.00	 3.73	 2.69	 
BOA_110	 0	 2	 01	 1	 46	 2.380166e+02	 ChocolateParaSucariotKoftzot2.bmp	 BisliOnion.bmp	 7	 16	 0	 i	 1	 1	 1041.87	 7.00	 5.93	 
BOA_110	 0	 2	 01	 1	 47	 2.410199e+02	 BambaNugat.bmp	 TapuchipsCrunch.bmp	 18	 14	 0	 u	 1	 0	 830.57	 5.91	 5.93	 
BOA_110	 0	 2	 01	 1	 48	 2.470266e+02	 ChocolateParaSucariotKoftzot2.bmp	 TapuchipsCrunch.bmp	 7	 14	 0	 i	 1	 1	 1247.87	 7.00	 5.93	 
BOA_110	 0	 2	 01	 1	 49	 2.500300e+02	 BisliOnion.bmp	 CrunchBisquitWhite2.bmp	 16	 15	 1	 u	 1	 1	 868.50	 5.93	 5.93	 
BOA_110	 0	 2	 01	 1	 50	 2.530167e+02	 KashitSour.bmp	 Mars.bmp	 53	 46	 0	 u	 2	 0	 761.78	 2.67	 3.71	 
BOA_110	 0	 2	 01	 1	 51	 2.570212e+02	 DoritosGrill.bmp	 CrunchShokoVanil.bmp	 17	 13	 1	 i	 1	 0	 877.28	 5.91	 5.98	 
BOA_110	 0	 2	 01	 1	 52	 2.600245e+02	 HappyHippo.bmp	 BisliPizza3.bmp	 12	 11	 0	 u	 1	 0	 697.93	 6.00	 6.00	 
BOA_110	 0	 2	 01	 1	 53	 2.680167e+02	 Tictac.bmp	 Popco.bmp	 54	 45	 1	 i	 2	 0	 721.71	 2.56	 3.73	 
BOA_110	 0	 2	 01	 1	 54	 2.750246e+02	 BabyDoll.bmp	 SkittlesFruits2.bmp	 49	 44	 1	 u	 2	 1	 1177.86	 3.69	 3.73	 
BOA_110	 0	 2	 01	 1	 55	 2.780280e+02	 BambaNugat.bmp	 KinderBuenoWhite2.bmp	 18	 9	 0	 u	 1	 0	 1126.50	 5.91	 6.96	 
BOA_110	 0	 2	 01	 1	 56	 2.840181e+02	 SkittlesFruits2.bmp	 Cheetos.bmp	 44	 43	 0	 x	 2	 999	 999000.00	 3.73	 3.76	 
BOA_110	 0	 2	 01	 1	 57	 2.870214e+02	 CrunchBisquitWhite2.bmp	 DoritosGrill.bmp	 15	 17	 0	 i	 1	 1	 853.06	 5.93	 5.91	 
BOA_110	 0	 2	 01	 1	 58	 2.900247e+02	 BisliGrill.bmp	 BambaNugat.bmp	 8	 18	 1	 u	 1	 1	 713.71	 6.98	 5.91	 
BOA_110	 0	 2	 01	 1	 59	 2.950303e+02	 KinderBuenoBrown3.bmp	 Halva2.bmp	 5	 55	 1	 u	 4	 1	 724.14	 7.02	 1.58	 
BOA_110	 0	 2	 01	 1	 60	 3.010204e+02	 CrunchShokoVanil.bmp	 BisliOnion.bmp	 13	 16	 0	 u	 1	 0	 1422.04	 5.98	 5.93	 
BOA_110	 0	 2	 01	 1	 61	 3.080283e+02	 BabyDoll.bmp	 KashitSour.bmp	 49	 53	 1	 i	 2	 0	 654.20	 3.69	 2.67	 
BOA_110	 0	 2	 01	 1	 62	 3.140184e+02	 Mentos.bmp	 Tortit.bmp	 51	 50	 1	 i	 2	 0	 808.10	 2.69	 2.71	 
BOA_110	 0	 2	 01	 1	 63	 3.170216e+02	 KashitSour.bmp	 Tictac.bmp	 53	 54	 0	 u	 2	 0	 708.82	 2.67	 2.56	 
BOA_110	 0	 2	 01	 1	 64	 3.200250e+02	 BabyDoll.bmp	 Dubonim.bmp	 49	 47	 1	 i	 2	 0	 1145.41	 3.69	 3.71	 
BOA_110	 0	 2	 01	 1	 65	 3.250138e+02	 Kitkat.bmp	 BisliPizza3.bmp	 10	 11	 0	 u	 1	 0	 812.62	 6.96	 6.00	 
BOA_110	 0	 2	 01	 1	 66	 3.280173e+02	 ChocolateParaSucariotKoftzot2.bmp	 BisliGrill.bmp	 7	 8	 0	 i	 1	 1	 817.11	 7.00	 6.98	 
BOA_110	 0	 2	 01	 1	 67	 3.340240e+02	 BisliOnion.bmp	 BambaNugat.bmp	 16	 18	 1	 i	 1	 0	 1002.43	 5.93	 5.91	 
BOA_110	 0	 2	 01	 1	 68	 3.370274e+02	 Dubonim.bmp	 Tictac.bmp	 47	 54	 0	 u	 2	 0	 751.10	 3.71	 2.56	 
BOA_110	 0	 2	 01	 1	 69	 3.420164e+02	 SkittlesFruits2.bmp	 Mars.bmp	 44	 46	 0	 i	 2	 1	 1290.08	 3.73	 3.71	 
BOA_110	 0	 2	 01	 1	 70	 3.460207e+02	 Tortit.bmp	 Egozi.bmp	 50	 48	 0	 u	 2	 0	 717.71	 2.71	 3.69	 
BOA_110	 0	 2	 01	 1	 71	 3.500253e+02	 KinderBuenoWhite2.bmp	 HappyHippo.bmp	 9	 12	 1	 i	 1	 0	 825.14	 6.96	 6.00	 
BOA_110	 0	 2	 01	 1	 72	 3.580176e+02	 Popco.bmp	 Mentos.bmp	 45	 51	 0	 u	 2	 0	 880.86	 3.73	 2.69	 
BOA_110	 0	 2	 01	 1	 73	 3.630231e+02	 BambaNugat.bmp	 BisliPizza3.bmp	 18	 11	 0	 u	 1	 0	 867.32	 5.91	 6.00	 
BOA_110	 0	 2	 01	 1	 74	 3.660266e+02	 BisliPizza3.bmp	 CrunchBisquitWhite2.bmp	 11	 15	 1	 u	 1	 1	 1295.85	 6.00	 5.93	 
BOA_110	 0	 2	 01	 1	 75	 3.740189e+02	 HappyHippo.bmp	 BisliOnion.bmp	 12	 16	 0	 u	 1	 0	 855.59	 6.00	 5.93	 
BOA_110	 0	 2	 01	 1	 76	 3.780234e+02	 Mentos.bmp	 Dubonim.bmp	 51	 47	 1	 i	 2	 0	 1011.10	 2.69	 3.71	 
