subjectID	scanner	order	block	run	trial	onsettime	ImageLeft	ImageRight	bidIndexLeft	bidIndexRight	IsleftGo	Response	PairType	Outcome	RT	bidLeft	bidRight	
BOA_120	 0	 2	 01	 1	 1	 2.018801e+00	 KinderBuenoWhite2.bmp	 Apropo.bmp	 18	 9	 0	 i	 1	 1	 1296.52	 4.91	 7.00	 
BOA_120	 0	 2	 01	 1	 2	 5.022117e+00	 Keifli.bmp	 ClickBlackWhite3.bmp	 47	 46	 0	 u	 2	 0	 1269.22	 2.82	 2.89	 
BOA_120	 0	 2	 01	 1	 3	 1.001112e+01	 Bounty.bmp	 Kitkat.bmp	 15	 16	 0	 u	 1	 0	 896.21	 5.82	 5.04	 
BOA_120	 0	 2	 01	 1	 4	 2.000533e+01	 Loacker.bmp	 Mars.bmp	 17	 13	 1	 x	 1	 999	 999000.00	 5.00	 6.09	 
BOA_120	 0	 2	 01	 1	 5	 2.501125e+01	 ChocolateParaSucariotKoftzot2.bmp	 Mentos.bmp	 52	 49	 0	 u	 2	 0	 864.08	 2.73	 2.78	 
BOA_120	 0	 2	 01	 1	 6	 3.101789e+01	 Smarties.bmp	 ClickXLbrown4.bmp	 51	 45	 1	 u	 2	 1	 1065.45	 2.73	 2.89	 
BOA_120	 0	 2	 01	 1	 7	 3.600657e+01	 ChocolateParaSucariotKoftzot2.bmp	 Egozi.bmp	 52	 43	 0	 i	 2	 1	 1420.75	 2.73	 3.78	 
BOA_120	 0	 2	 01	 1	 8	 3.901033e+01	 ClickBalls5.bmp	 BisliOnion.bmp	 14	 12	 1	 i	 1	 0	 1329.00	 5.93	 6.87	 
BOA_120	 0	 2	 01	 1	 9	 4.201363e+01	 Tapuchips.bmp	 ClickXLbrown4.bmp	 54	 45	 1	 u	 2	 1	 941.70	 1.73	 2.89	 
BOA_120	 0	 2	 01	 1	 10	 4.802033e+01	 Keifli.bmp	 Tapuchips.bmp	 47	 54	 0	 i	 2	 1	 1047.00	 2.82	 1.73	 
BOA_120	 0	 2	 01	 1	 11	 5.200817e+01	 ClickXLwhite4.bmp	 Mentos.bmp	 44	 49	 0	 u	 2	 0	 1083.16	 3.73	 2.78	 
BOA_120	 0	 2	 01	 1	 12	 5.701375e+01	 BagaleShtuhim.bmp	 BisliOnion.bmp	 8	 12	 1	 u	 1	 1	 1133.59	 7.00	 6.87	 
BOA_120	 0	 2	 01	 1	 13	 6.101818e+01	 Kitkat.bmp	 KinderBuenoWhite2.bmp	 16	 18	 1	 u	 1	 1	 1169.16	 5.04	 4.91	 
BOA_120	 0	 2	 01	 1	 14	 6.500572e+01	 KifkefMaklot2.bmp	 Tapuchips.bmp	 50	 54	 0	 i	 2	 1	 973.61	 2.78	 1.73	 
BOA_120	 0	 2	 01	 1	 15	 6.800940e+01	 BisliOnion.bmp	 BambaNugat.bmp	 12	 11	 0	 i	 1	 1	 1121.93	 6.87	 6.98	 
BOA_120	 0	 2	 01	 1	 16	 7.101281e+01	 Kitkat.bmp	 Mars.bmp	 16	 13	 1	 u	 1	 1	 1022.52	 5.04	 6.09	 
BOA_120	 0	 2	 01	 1	 17	 8.300955e+01	 ClickXLwhite4.bmp	 Tapuchips.bmp	 44	 54	 0	 i	 2	 1	 1081.79	 3.73	 1.73	 
BOA_120	 0	 2	 01	 1	 18	 9.201962e+01	 ClickBalls5.bmp	 Mars.bmp	 14	 13	 1	 i	 1	 0	 1111.71	 5.93	 6.09	 
BOA_120	 0	 2	 01	 1	 19	 9.600744e+01	 Shugi.bmp	 Apropo.bmp	 7	 9	 0	 x	 1	 999	 999000.00	 7.04	 7.00	 
BOA_120	 0	 2	 01	 1	 20	 1.020142e+02	 Apropo.bmp	 Mars.bmp	 9	 13	 1	 i	 1	 0	 1365.14	 7.00	 6.09	 
BOA_120	 0	 2	 01	 1	 21	 1.050175e+02	 Bounty.bmp	 BambaNugat.bmp	 15	 11	 0	 u	 1	 0	 961.79	 5.82	 6.98	 
BOA_120	 0	 2	 01	 1	 22	 1.150120e+02	 BagaleShtuhim.bmp	 Dubonim.bmp	 8	 10	 1	 u	 1	 1	 855.28	 7.00	 6.98	 
BOA_120	 0	 2	 01	 1	 23	 1.290111e+02	 Smarties.bmp	 ChocolateParaSucariotKoftzot2.bmp	 51	 52	 1	 x	 2	 999	 999000.00	 2.73	 2.73	 
BOA_120	 0	 2	 01	 1	 24	 1.320145e+02	 GumiSnakes3.bmp	 Tapuchips.bmp	 53	 54	 0	 u	 2	 0	 484.87	 2.64	 1.73	 
BOA_120	 0	 2	 01	 1	 25	 1.350178e+02	 KinderBuenoWhite2.bmp	 Loacker.bmp	 18	 17	 0	 u	 1	 0	 1297.51	 4.91	 5.00	 
BOA_120	 0	 2	 01	 1	 26	 1.390223e+02	 Kitkat.bmp	 Dubonim.bmp	 16	 10	 1	 i	 1	 0	 821.06	 5.04	 6.98	 
BOA_120	 0	 2	 01	 1	 27	 1.430102e+02	 ClickBlackWhite3.bmp	 GumiSnakes3.bmp	 46	 53	 1	 u	 2	 1	 1161.17	 2.89	 2.64	 
BOA_120	 0	 2	 01	 1	 28	 1.470146e+02	 KinderBuenoWhite2.bmp	 BambaNugat.bmp	 18	 11	 0	 i	 1	 1	 1108.73	 4.91	 6.98	 
BOA_120	 0	 2	 01	 1	 29	 1.500180e+02	 BagaleShtuhim.bmp	 Bounty.bmp	 8	 15	 1	 i	 1	 0	 1025.37	 7.00	 5.82	 
BOA_120	 0	 2	 01	 1	 30	 1.560080e+02	 ChocolateParaSucariotKoftzot2.bmp	 Tapuchips.bmp	 52	 54	 0	 i	 2	 1	 867.34	 2.73	 1.73	 
BOA_120	 0	 2	 01	 1	 31	 1.600126e+02	 BambaNugat.bmp	 Dubonim.bmp	 11	 10	 1	 u	 1	 1	 806.74	 6.98	 6.98	 
BOA_120	 0	 2	 01	 1	 32	 1.640170e+02	 ChocolateParaSucariotKoftzot2.bmp	 ClickBlackWhite3.bmp	 52	 46	 0	 u	 2	 0	 1362.37	 2.73	 2.89	 
BOA_120	 0	 2	 01	 1	 33	 1.690057e+02	 ChocolateParaCookies5.bmp	 Keifli.bmp	 48	 47	 1	 i	 2	 0	 1093.59	 2.78	 2.82	 
BOA_120	 0	 2	 01	 1	 34	 1.730104e+02	 Bamba.bmp	 HispusimShatiah.bmp	 6	 56	 1	 u	 4	 1	 1240.97	 7.09	 0.73	 
BOA_120	 0	 2	 01	 1	 35	 1.770149e+02	 ClickBalls5.bmp	 Shugi.bmp	 14	 7	 1	 i	 1	 0	 1324.47	 5.93	 7.04	 
BOA_120	 0	 2	 01	 1	 36	 1.850072e+02	 Smarties.bmp	 GumiSnakes3.bmp	 51	 53	 1	 u	 2	 1	 1004.11	 2.73	 2.64	 
BOA_120	 0	 2	 01	 1	 37	 1.910139e+02	 Cheetos.bmp	 GumiWine2.bmp	 5	 55	 1	 u	 4	 1	 997.43	 7.09	 1.69	 
BOA_120	 0	 2	 01	 1	 38	 1.970207e+02	 Kitkat.bmp	 Shugi.bmp	 16	 7	 1	 i	 1	 0	 1398.67	 5.04	 7.04	 
BOA_120	 0	 2	 01	 1	 39	 2.110197e+02	 Cheetos.bmp	 HispusimShatiah.bmp	 5	 56	 1	 u	 4	 1	 1335.63	 7.09	 0.73	 
BOA_120	 0	 2	 01	 1	 40	 2.170097e+02	 Dubonim.bmp	 Loacker.bmp	 10	 17	 0	 u	 1	 0	 1377.62	 6.98	 5.00	 
BOA_120	 0	 2	 01	 1	 41	 2.200131e+02	 ChocolateParaCookies5.bmp	 ClickXLbrown4.bmp	 48	 45	 1	 x	 2	 999	 999000.00	 2.78	 2.89	 
BOA_120	 0	 2	 01	 1	 42	 2.230165e+02	 BambaNugat.bmp	 Shugi.bmp	 11	 7	 1	 u	 1	 1	 890.87	 6.98	 7.04	 
BOA_120	 0	 2	 01	 1	 43	 2.260198e+02	 GumiWine2.bmp	 Bamba.bmp	 55	 6	 0	 i	 4	 1	 1399.47	 1.69	 7.09	 
BOA_120	 0	 2	 01	 1	 44	 2.290062e+02	 ClickXLwhite4.bmp	 Smarties.bmp	 44	 51	 0	 i	 2	 1	 1117.14	 3.73	 2.73	 
BOA_120	 0	 2	 01	 1	 45	 2.340121e+02	 Egozi.bmp	 KifkefMaklot2.bmp	 43	 50	 1	 u	 2	 1	 1439.18	 3.78	 2.78	 
BOA_120	 0	 2	 01	 1	 46	 2.390178e+02	 KifkefMaklot2.bmp	 Mentos.bmp	 50	 49	 0	 x	 2	 999	 999000.00	 2.78	 2.78	 
BOA_120	 0	 2	 01	 1	 47	 2.440063e+02	 BagaleShtuhim.bmp	 Shugi.bmp	 8	 7	 1	 i	 1	 0	 1117.00	 7.00	 7.04	 
BOA_120	 0	 2	 01	 1	 48	 2.550190e+02	 KinderBuenoWhite2.bmp	 BagaleShtuhim.bmp	 18	 8	 0	 i	 1	 1	 928.37	 4.91	 7.00	 
BOA_120	 0	 2	 01	 1	 49	 2.580223e+02	 ClickXLwhite4.bmp	 Egozi.bmp	 44	 43	 0	 i	 2	 1	 997.02	 3.73	 3.78	 
BOA_120	 0	 2	 01	 1	 50	 2.610090e+02	 GumiSnakes3.bmp	 ChocolateParaCookies5.bmp	 53	 48	 0	 i	 2	 1	 1234.33	 2.64	 2.78	 
BOA_120	 0	 2	 01	 1	 51	 2.660146e+02	 Bounty.bmp	 Loacker.bmp	 15	 17	 0	 u	 1	 0	 740.74	 5.82	 5.00	 
BOA_120	 0	 2	 01	 1	 52	 2.710203e+02	 BagaleShtuhim.bmp	 Mars.bmp	 8	 13	 1	 i	 1	 0	 895.07	 7.00	 6.09	 
BOA_120	 0	 2	 01	 1	 53	 2.740067e+02	 ClickBalls5.bmp	 Bounty.bmp	 14	 15	 1	 i	 1	 0	 852.67	 5.93	 5.82	 
BOA_120	 0	 2	 01	 1	 54	 2.790126e+02	 Shugi.bmp	 Loacker.bmp	 7	 17	 0	 u	 1	 0	 1062.70	 7.04	 5.00	 
BOA_120	 0	 2	 01	 1	 55	 2.840182e+02	 Kitkat.bmp	 BisliOnion.bmp	 16	 12	 1	 i	 1	 0	 1057.17	 5.04	 6.87	 
BOA_120	 0	 2	 01	 1	 56	 2.910093e+02	 ClickXLwhite4.bmp	 ChocolateParaCookies5.bmp	 44	 48	 0	 u	 2	 0	 1410.02	 3.73	 2.78	 
BOA_120	 0	 2	 01	 1	 57	 2.950138e+02	 Egozi.bmp	 GumiSnakes3.bmp	 43	 53	 1	 u	 2	 1	 1437.50	 3.78	 2.64	 
BOA_120	 0	 2	 01	 1	 58	 3.000195e+02	 Keifli.bmp	 Smarties.bmp	 47	 51	 0	 i	 2	 1	 1087.87	 2.82	 2.73	 
BOA_120	 0	 2	 01	 1	 59	 3.060095e+02	 KifkefMaklot2.bmp	 ChocolateParaCookies5.bmp	 50	 48	 0	 i	 2	 1	 1225.84	 2.78	 2.78	 
BOA_120	 0	 2	 01	 1	 60	 3.090128e+02	 KifkefMaklot2.bmp	 ClickBlackWhite3.bmp	 50	 46	 0	 x	 2	 999	 999000.00	 2.78	 2.89	 
BOA_120	 0	 2	 01	 1	 61	 3.130174e+02	 ClickBlackWhite3.bmp	 ClickXLbrown4.bmp	 46	 45	 1	 i	 2	 0	 1121.98	 2.89	 2.89	 
BOA_120	 0	 2	 01	 1	 62	 3.160207e+02	 Mentos.bmp	 Keifli.bmp	 49	 47	 1	 i	 2	 0	 1150.63	 2.78	 2.82	 
BOA_120	 0	 2	 01	 1	 63	 3.220107e+02	 ClickBalls5.bmp	 KinderBuenoWhite2.bmp	 14	 18	 1	 u	 1	 1	 1320.60	 5.93	 4.91	 
BOA_120	 0	 2	 01	 1	 64	 3.250141e+02	 Bounty.bmp	 Apropo.bmp	 15	 9	 0	 u	 1	 0	 869.23	 5.82	 7.00	 
BOA_120	 0	 2	 01	 1	 65	 3.290186e+02	 ClickBlackWhite3.bmp	 ClickXLwhite4.bmp	 46	 44	 1	 x	 2	 999	 999000.00	 2.89	 3.73	 
BOA_120	 0	 2	 01	 1	 66	 3.330061e+02	 ClickXLbrown4.bmp	 Mentos.bmp	 45	 49	 0	 u	 2	 0	 1373.25	 2.89	 2.78	 
BOA_120	 0	 2	 01	 1	 67	 3.360098e+02	 Keifli.bmp	 Egozi.bmp	 47	 43	 0	 u	 2	 0	 745.52	 2.82	 3.78	 
BOA_120	 0	 2	 01	 1	 68	 3.390131e+02	 Loacker.bmp	 BisliOnion.bmp	 17	 12	 1	 i	 1	 0	 806.19	 5.00	 6.87	 
BOA_120	 0	 2	 01	 1	 69	 3.430176e+02	 BisliOnion.bmp	 Apropo.bmp	 12	 9	 0	 i	 1	 1	 545.72	 6.87	 7.00	 
BOA_120	 0	 2	 01	 1	 70	 3.460209e+02	 Dubonim.bmp	 ClickBalls5.bmp	 10	 14	 0	 i	 1	 1	 662.43	 6.98	 5.93	 
BOA_120	 0	 2	 01	 1	 71	 3.520110e+02	 Egozi.bmp	 ClickXLbrown4.bmp	 43	 45	 1	 u	 2	 1	 944.34	 3.78	 2.89	 
BOA_120	 0	 2	 01	 1	 72	 3.550143e+02	 Dubonim.bmp	 Apropo.bmp	 10	 9	 0	 u	 1	 0	 1308.99	 6.98	 7.00	 
BOA_120	 0	 2	 01	 1	 73	 3.630064e+02	 Mentos.bmp	 GumiSnakes3.bmp	 49	 53	 1	 u	 2	 1	 892.97	 2.78	 2.64	 
BOA_120	 0	 2	 01	 1	 74	 3.680123e+02	 ChocolateParaCookies5.bmp	 ChocolateParaSucariotKoftzot2.bmp	 48	 52	 1	 u	 2	 1	 1335.08	 2.78	 2.73	 
BOA_120	 0	 2	 01	 1	 75	 3.710157e+02	 Mars.bmp	 BambaNugat.bmp	 13	 11	 0	 u	 1	 0	 819.67	 6.09	 6.98	 
BOA_120	 0	 2	 01	 1	 76	 3.780068e+02	 KifkefMaklot2.bmp	 Smarties.bmp	 50	 51	 0	 i	 2	 1	 868.50	 2.78	 2.73	 
