subjectID	scanner	order	block	run	trial	onsettime	ImageLeft	ImageRight	bidIndexLeft	bidIndexRight	IsleftGo	Response	PairType	Outcome	RT	bidLeft	bidRight	
bmem_snacks_113	 0	 1	 05	 1	 1	 2.018594e+00	 Halva2.bmp	 CrunchBisquitBrown3.bmp	 11	 7	 0	 i	 1	 1	 979.19	 9.04	 9.89	 
bmem_snacks_113	 0	 1	 05	 1	 2	 7.024205e+00	 KinderJoy.bmp	 PesekZman.bmp	 8	 15	 0	 u	 1	 0	 677.61	 9.84	 8.04	 
bmem_snacks_113	 0	 1	 05	 1	 3	 1.701872e+01	 Twist.bmp	 Shugi.bmp	 51	 45	 0	 i	 2	 1	 1203.06	 0.76	 1.69	 
bmem_snacks_113	 0	 1	 05	 1	 4	 2.102321e+01	 BisliOnion.bmp	 CrunchShokoVanil.bmp	 48	 44	 0	 u	 2	 0	 1094.58	 1.60	 1.71	 
bmem_snacks_113	 0	 1	 05	 1	 5	 2.601210e+01	 PesekZman.bmp	 Loacker.bmp	 15	 14	 1	 i	 1	 0	 969.69	 8.04	 8.11	 
bmem_snacks_113	 0	 1	 05	 1	 6	 3.201888e+01	 Snickers.bmp	 ChocolateParaSucariotKoftzot2.bmp	 54	 47	 0	 i	 2	 1	 778.90	 0.60	 1.64	 
bmem_snacks_113	 0	 1	 05	 1	 7	 3.702458e+01	 KashitSour.bmp	 Taami.bmp	 6	 55	 1	 u	 3	 1	 733.21	 9.91	 0.53	 
bmem_snacks_113	 0	 1	 05	 1	 8	 4.002787e+01	 Hit.bmp	 HappyHippo.bmp	 9	 12	 0	 i	 1	 1	 737.91	 9.13	 9.04	 
bmem_snacks_113	 0	 1	 05	 1	 9	 4.301460e+01	 ChocolateParaMarir2.bmp	 Mars.bmp	 43	 53	 0	 u	 2	 0	 943.18	 1.73	 0.64	 
bmem_snacks_113	 0	 1	 05	 1	 10	 4.601797e+01	 Mars.bmp	 BisliOnion.bmp	 53	 48	 1	 i	 2	 0	 931.82	 0.64	 1.60	 
bmem_snacks_113	 0	 1	 05	 1	 11	 4.902136e+01	 ChocolateParaCookies5.bmp	 KinderJoy.bmp	 13	 8	 1	 i	 1	 0	 656.42	 9.02	 9.84	 
bmem_snacks_113	 0	 1	 05	 1	 12	 5.601218e+01	 ChocolateParaMarir2.bmp	 Twix.bmp	 43	 52	 0	 u	 2	 0	 889.63	 1.73	 0.64	 
bmem_snacks_113	 0	 1	 05	 1	 13	 5.901581e+01	 Cheetos.bmp	 Taami.bmp	 5	 55	 1	 u	 3	 1	 909.99	 9.93	 0.53	 
bmem_snacks_113	 0	 1	 05	 1	 14	 6.201932e+01	 Tortit.bmp	 Smarties.bmp	 50	 49	 1	 u	 2	 1	 1178.47	 1.51	 1.60	 
bmem_snacks_113	 0	 1	 05	 1	 15	 6.702485e+01	 ChocolateParaCookies5.bmp	 Bamba.bmp	 13	 16	 1	 u	 1	 1	 852.94	 9.02	 7.04	 
bmem_snacks_113	 0	 1	 05	 1	 16	 7.301486e+01	 Snickers.bmp	 Shugi.bmp	 54	 45	 0	 i	 2	 1	 1070.92	 0.60	 1.69	 
bmem_snacks_113	 0	 1	 05	 1	 17	 7.802051e+01	 Twist.bmp	 Mars.bmp	 51	 53	 0	 u	 2	 0	 937.28	 0.76	 0.64	 
bmem_snacks_113	 0	 1	 05	 1	 18	 8.302616e+01	 ChocolateParaMilk3.bmp	 SkittlesFruits2.bmp	 21	 22	 0	 i	 4	 1	 971.62	 5.91	 5.84	 
bmem_snacks_113	 0	 1	 05	 1	 19	 9.201957e+01	 ChocolateParaSucariotKoftzot2.bmp	 Smarties.bmp	 47	 49	 1	 u	 2	 1	 1138.21	 1.64	 1.60	 
bmem_snacks_113	 0	 1	 05	 1	 20	 9.702514e+01	 Snickers.bmp	 CrunchShokoVanil.bmp	 54	 44	 0	 i	 2	 1	 1220.64	 0.60	 1.71	 
bmem_snacks_113	 0	 1	 05	 1	 21	 1.030152e+02	 Popco.bmp	 KashitSour.bmp	 56	 6	 0	 i	 3	 1	 646.57	 0.13	 9.91	 
bmem_snacks_113	 0	 1	 05	 1	 22	 1.060186e+02	 DoritosGrill.bmp	 BisliPizza3.bmp	 41	 42	 0	 i	 5	 1	 1003.15	 2.71	 2.64	 
bmem_snacks_113	 0	 1	 05	 1	 23	 1.190165e+02	 Twist.bmp	 ChocolateParaSucariotKoftzot2.bmp	 51	 47	 0	 i	 2	 1	 605.26	 0.76	 1.64	 
bmem_snacks_113	 0	 1	 05	 1	 24	 1.230210e+02	 Mars.bmp	 Snickers.bmp	 53	 54	 1	 i	 2	 0	 1032.76	 0.64	 0.60	 
bmem_snacks_113	 0	 1	 05	 1	 25	 1.290277e+02	 Twix.bmp	 BisliOnion.bmp	 52	 48	 1	 i	 2	 0	 866.07	 0.64	 1.60	 
bmem_snacks_113	 0	 1	 05	 1	 26	 1.360189e+02	 Mars.bmp	 Smarties.bmp	 53	 49	 1	 i	 2	 0	 690.86	 0.64	 1.60	 
bmem_snacks_113	 0	 1	 05	 1	 27	 1.410246e+02	 HappyHippo.bmp	 Halva2.bmp	 12	 11	 1	 u	 1	 1	 773.20	 9.04	 9.04	 
bmem_snacks_113	 0	 1	 05	 1	 28	 1.440110e+02	 Mekupelet.bmp	 Loacker.bmp	 18	 14	 1	 i	 1	 0	 858.82	 6.87	 8.11	 
bmem_snacks_113	 0	 1	 05	 1	 29	 1.470146e+02	 HispusimShatiah.bmp	 TapuchipsCrunch.bmp	 19	 20	 1	 u	 4	 1	 1015.19	 5.93	 5.93	 
bmem_snacks_113	 0	 1	 05	 1	 30	 1.500180e+02	 Twix.bmp	 Tictac.bmp	 52	 46	 1	 i	 2	 0	 883.82	 0.64	 1.67	 
bmem_snacks_113	 0	 1	 05	 1	 31	 1.530214e+02	 CrunchBisquitWhite2.bmp	 Bamba.bmp	 10	 16	 1	 u	 1	 1	 648.43	 9.13	 7.04	 
bmem_snacks_113	 0	 1	 05	 1	 32	 1.570258e+02	 CrunchBisquitBrown3.bmp	 Bamba.bmp	 7	 16	 1	 u	 1	 1	 683.95	 9.89	 7.04	 
bmem_snacks_113	 0	 1	 05	 1	 33	 1.600122e+02	 KinderJoy.bmp	 HappyHippo.bmp	 8	 12	 0	 u	 1	 0	 833.63	 9.84	 9.04	 
bmem_snacks_113	 0	 1	 05	 1	 34	 1.690225e+02	 BisliOnion.bmp	 ChocolateParaSucariotKoftzot2.bmp	 48	 47	 0	 u	 2	 0	 1103.23	 1.60	 1.64	 
bmem_snacks_113	 0	 1	 05	 1	 35	 1.730271e+02	 CrunchBisquitBrown3.bmp	 KinderJoy.bmp	 7	 8	 1	 i	 1	 0	 842.72	 9.89	 9.84	 
bmem_snacks_113	 0	 1	 05	 1	 36	 1.760138e+02	 Tortit.bmp	 Snickers.bmp	 50	 54	 1	 u	 2	 1	 775.95	 1.51	 0.60	 
bmem_snacks_113	 0	 1	 05	 1	 37	 1.880273e+02	 CrunchBisquitWhite2.bmp	 BagaleShtuhim.bmp	 10	 17	 1	 u	 1	 1	 730.52	 9.13	 7.00	 
bmem_snacks_113	 0	 1	 05	 1	 38	 1.920150e+02	 Snickers.bmp	 Twix.bmp	 54	 52	 0	 i	 2	 1	 1214.74	 0.60	 0.64	 
bmem_snacks_113	 0	 1	 05	 1	 39	 1.950185e+02	 ChocolateParaCookies5.bmp	 Halva2.bmp	 13	 11	 1	 u	 1	 1	 1019.30	 9.02	 9.04	 
bmem_snacks_113	 0	 1	 05	 1	 40	 1.990229e+02	 CrunchBisquitWhite2.bmp	 KinderJoy.bmp	 10	 8	 1	 i	 1	 0	 526.84	 9.13	 9.84	 
bmem_snacks_113	 0	 1	 05	 1	 41	 2.030274e+02	 Shugi.bmp	 Smarties.bmp	 45	 49	 1	 u	 2	 1	 714.36	 1.69	 1.60	 
bmem_snacks_113	 0	 1	 05	 1	 42	 2.080164e+02	 Mars.bmp	 Tictac.bmp	 53	 46	 1	 i	 2	 0	 581.42	 0.64	 1.67	 
bmem_snacks_113	 0	 1	 05	 1	 43	 2.160253e+02	 ChocolateParaCookies5.bmp	 Loacker.bmp	 13	 14	 1	 i	 1	 0	 796.43	 9.02	 8.11	 
bmem_snacks_113	 0	 1	 05	 1	 44	 2.200131e+02	 CrunchBisquitWhite2.bmp	 Halva2.bmp	 10	 11	 1	 u	 1	 1	 704.67	 9.13	 9.04	 
bmem_snacks_113	 0	 1	 05	 1	 45	 2.240176e+02	 Hit.bmp	 Mekupelet.bmp	 9	 18	 0	 u	 1	 0	 1004.19	 9.13	 6.87	 
bmem_snacks_113	 0	 1	 05	 1	 46	 2.380166e+02	 ChocolateParaMarir2.bmp	 ChocolateParaSucariotKoftzot2.bmp	 43	 47	 0	 i	 2	 1	 1069.13	 1.73	 1.64	 
bmem_snacks_113	 0	 1	 05	 1	 47	 2.410199e+02	 ChocolateParaSucariotKoftzot2.bmp	 Tictac.bmp	 47	 46	 1	 i	 2	 0	 753.86	 1.64	 1.67	 
bmem_snacks_113	 0	 1	 05	 1	 48	 2.450245e+02	 Tictac.bmp	 Tortit.bmp	 46	 50	 0	 u	 2	 0	 789.27	 1.67	 1.51	 
bmem_snacks_113	 0	 1	 05	 1	 49	 2.490120e+02	 Tictac.bmp	 CrunchShokoVanil.bmp	 46	 44	 0	 u	 2	 0	 593.79	 1.67	 1.71	 
bmem_snacks_113	 0	 1	 05	 1	 50	 2.550190e+02	 BagaleShtuhim.bmp	 HappyHippo.bmp	 17	 12	 0	 i	 1	 1	 1042.74	 7.00	 9.04	 
bmem_snacks_113	 0	 1	 05	 1	 51	 2.580224e+02	 Twist.bmp	 Tortit.bmp	 51	 50	 0	 i	 2	 1	 951.34	 0.76	 1.51	 
bmem_snacks_113	 0	 1	 05	 1	 52	 2.610258e+02	 PesekZman.bmp	 Bamba.bmp	 15	 16	 1	 u	 1	 1	 915.97	 8.04	 7.04	 
bmem_snacks_113	 0	 1	 05	 1	 53	 2.660147e+02	 BagaleShtuhim.bmp	 CrunchBisquitBrown3.bmp	 17	 7	 0	 i	 1	 1	 767.13	 7.00	 9.89	 
bmem_snacks_113	 0	 1	 05	 1	 54	 2.760259e+02	 Bamba.bmp	 HappyHippo.bmp	 16	 12	 0	 i	 1	 1	 627.89	 7.04	 9.04	 
bmem_snacks_113	 0	 1	 05	 1	 55	 2.790123e+02	 CrunchShokoVanil.bmp	 Smarties.bmp	 44	 49	 1	 i	 2	 0	 729.51	 1.71	 1.60	 
bmem_snacks_113	 0	 1	 05	 1	 56	 2.820160e+02	 ChocolateParaCookies5.bmp	 Hit.bmp	 13	 9	 1	 i	 1	 0	 709.76	 9.02	 9.13	 
bmem_snacks_113	 0	 1	 05	 1	 57	 2.870216e+02	 ChocolateParaMarir2.bmp	 CrunchShokoVanil.bmp	 43	 44	 0	 i	 2	 1	 616.19	 1.73	 1.71	 
bmem_snacks_113	 0	 1	 05	 1	 58	 2.900249e+02	 Shugi.bmp	 Tictac.bmp	 45	 46	 1	 i	 2	 0	 700.88	 1.69	 1.67	 
bmem_snacks_113	 0	 1	 05	 1	 59	 2.960150e+02	 CrunchBisquitWhite2.bmp	 Hit.bmp	 10	 9	 1	 i	 1	 0	 1422.74	 9.13	 9.13	 
bmem_snacks_113	 0	 1	 05	 1	 60	 2.990184e+02	 Smarties.bmp	 Twix.bmp	 49	 52	 0	 u	 2	 0	 899.37	 1.60	 0.64	 
bmem_snacks_113	 0	 1	 05	 1	 61	 3.040241e+02	 Tortit.bmp	 ChocolateParaMarir2.bmp	 50	 43	 1	 x	 2	 999	 999000.00	 1.51	 1.73	 
bmem_snacks_113	 0	 1	 05	 1	 62	 3.070104e+02	 Kitkat.bmp	 DoritosNatural.bmp	 39	 40	 1	 x	 5	 999	 999000.00	 2.73	 2.71	 
bmem_snacks_113	 0	 1	 05	 1	 63	 3.150197e+02	 HappyHippo.bmp	 Loacker.bmp	 12	 14	 1	 u	 1	 1	 626.13	 9.04	 8.11	 
bmem_snacks_113	 0	 1	 05	 1	 64	 3.190241e+02	 BagaleShtuhim.bmp	 Mekupelet.bmp	 17	 18	 0	 i	 1	 1	 629.67	 7.00	 6.87	 
bmem_snacks_113	 0	 1	 05	 1	 65	 3.230117e+02	 Shugi.bmp	 ChocolateParaMarir2.bmp	 45	 43	 1	 u	 2	 1	 586.14	 1.69	 1.73	 
bmem_snacks_113	 0	 1	 05	 1	 66	 3.280176e+02	 Loacker.bmp	 CrunchBisquitBrown3.bmp	 14	 7	 0	 u	 1	 0	 900.16	 8.11	 9.89	 
bmem_snacks_113	 0	 1	 05	 1	 67	 3.320221e+02	 Mekupelet.bmp	 KinderJoy.bmp	 18	 8	 1	 i	 1	 0	 519.66	 6.87	 9.84	 
bmem_snacks_113	 0	 1	 05	 1	 68	 3.370278e+02	 DoritosNatural.bmp	 Kitkat.bmp	 40	 39	 0	 i	 5	 1	 826.00	 2.71	 2.73	 
bmem_snacks_113	 0	 1	 05	 1	 69	 3.450200e+02	 Twist.bmp	 Twix.bmp	 51	 52	 0	 u	 2	 0	 761.85	 0.76	 0.64	 
bmem_snacks_113	 0	 1	 05	 1	 70	 3.480234e+02	 PesekZman.bmp	 BagaleShtuhim.bmp	 15	 17	 1	 u	 1	 1	 870.35	 8.04	 7.00	 
bmem_snacks_113	 0	 1	 05	 1	 71	 3.510268e+02	 BisliOnion.bmp	 Tortit.bmp	 48	 50	 0	 i	 2	 1	 826.99	 1.60	 1.51	 
bmem_snacks_113	 0	 1	 05	 1	 72	 3.560157e+02	 TapuchipsCrunch.bmp	 HispusimShatiah.bmp	 20	 19	 0	 i	 4	 1	 750.12	 5.93	 5.93	 
bmem_snacks_113	 0	 1	 05	 1	 73	 3.600202e+02	 ChocolateParaMilk3.bmp	 SkittlesFruits2.bmp	 21	 22	 0	 u	 4	 0	 697.60	 5.91	 5.84	 
bmem_snacks_113	 0	 1	 05	 1	 74	 3.630236e+02	 Loacker.bmp	 CrunchBisquitWhite2.bmp	 14	 10	 0	 u	 1	 0	 718.23	 8.11	 9.13	 
bmem_snacks_113	 0	 1	 05	 1	 75	 3.740192e+02	 Bamba.bmp	 Mekupelet.bmp	 16	 18	 0	 i	 1	 1	 618.60	 7.04	 6.87	 
bmem_snacks_113	 0	 1	 05	 1	 76	 3.840138e+02	 PesekZman.bmp	 Halva2.bmp	 15	 11	 1	 u	 1	 1	 1079.98	 8.04	 9.04	 
bmem_snacks_113	 0	 1	 05	 1	 77	 3.890193e+02	 Shugi.bmp	 BisliOnion.bmp	 45	 48	 1	 i	 2	 0	 1066.44	 1.69	 1.60	 
bmem_snacks_113	 0	 1	 05	 1	 78	 3.930239e+02	 Halva2.bmp	 Mekupelet.bmp	 11	 18	 0	 i	 1	 1	 661.93	 9.04	 6.87	 
bmem_snacks_113	 0	 1	 05	 1	 79	 3.970113e+02	 Twist.bmp	 CrunchShokoVanil.bmp	 51	 44	 0	 i	 2	 1	 706.44	 0.76	 1.71	 
bmem_snacks_113	 0	 1	 05	 1	 80	 4.010162e+02	 PesekZman.bmp	 Hit.bmp	 15	 9	 1	 i	 1	 0	 645.57	 8.04	 9.13	 
bmem_snacks_113	 0	 1	 05	 1	 81	 4.070228e+02	 Hit.bmp	 CrunchBisquitBrown3.bmp	 9	 7	 0	 u	 1	 0	 1142.94	 9.13	 9.89	 
bmem_snacks_113	 0	 1	 05	 1	 82	 4.100263e+02	 BagaleShtuhim.bmp	 ChocolateParaCookies5.bmp	 17	 13	 0	 i	 1	 1	 923.50	 7.00	 9.02	 
bmem_snacks_113	 0	 1	 05	 1	 83	 4.140140e+02	 DoritosGrill.bmp	 BisliPizza3.bmp	 41	 42	 0	 i	 5	 1	 1055.74	 2.71	 2.64	 
bmem_snacks_113	 0	 1	 05	 1	 84	 4.180186e+02	 Cheetos.bmp	 Popco.bmp	 5	 56	 1	 u	 3	 1	 795.22	 9.93	 0.13	 
