subjectID	scanner	order	block	run	trial	onsettime	ImageLeft	ImageRight	bidIndexLeft	bidIndexRight	IsleftGo	Response	PairType	Outcome	RT	bidLeft	bidRight	
bmem_snacks_110	 0	 2	 06	 1	 1	 2.018898e+00	 Dubonim.bmp	 Hit.bmp	 44	 43	 0	 u	 2	 0	 855.01	 3.78	 3.78	 
bmem_snacks_110	 0	 2	 06	 1	 2	 5.022154e+00	 Cheetos.bmp	 Dubonim.bmp	 48	 44	 1	 u	 2	 1	 1387.76	 2.78	 3.78	 
bmem_snacks_110	 0	 2	 06	 1	 3	 1.002779e+01	 Tortit.bmp	 Dubonim.bmp	 51	 44	 1	 i	 2	 0	 942.13	 2.31	 3.78	 
bmem_snacks_110	 0	 2	 06	 1	 4	 1.303113e+01	 Tictac.bmp	 ClickBalls5.bmp	 56	 6	 0	 i	 3	 1	 722.78	 0.62	 9.13	 
bmem_snacks_110	 0	 2	 06	 1	 5	 1.601779e+01	 BabyDoll.bmp	 KifkefMaklot2.bmp	 53	 49	 0	 u	 2	 0	 1120.13	 1.69	 2.73	 
bmem_snacks_110	 0	 2	 06	 1	 6	 2.102344e+01	 KifkefMaklot2.bmp	 Twist.bmp	 49	 47	 1	 u	 2	 1	 1066.47	 2.73	 2.80	 
bmem_snacks_110	 0	 2	 06	 1	 7	 2.502801e+01	 HispusimShatiah.bmp	 GumiSnakes3.bmp	 13	 8	 0	 u	 1	 0	 837.91	 8.04	 9.02	 
bmem_snacks_110	 0	 2	 06	 1	 8	 3.001693e+01	 Shugi.bmp	 HappyHippo.bmp	 52	 46	 0	 i	 2	 1	 992.97	 1.69	 3.67	 
bmem_snacks_110	 0	 2	 06	 1	 9	 3.602369e+01	 Tortit.bmp	 BabyDoll.bmp	 51	 53	 1	 i	 2	 0	 1378.22	 2.31	 1.69	 
bmem_snacks_110	 0	 2	 06	 1	 10	 4.102930e+01	 GumiWine2.bmp	 Snickers.bmp	 21	 22	 1	 u	 4	 1	 924.61	 7.00	 6.98	 
bmem_snacks_110	 0	 2	 06	 1	 11	 4.902160e+01	 CrunchShokoVanil.bmp	 Halva2.bmp	 45	 54	 0	 i	 2	 1	 1252.34	 3.73	 1.69	 
bmem_snacks_110	 0	 2	 06	 1	 12	 5.302603e+01	 Tortit.bmp	 CrunchShokoVanil.bmp	 51	 45	 1	 u	 2	 1	 863.88	 2.31	 3.73	 
bmem_snacks_110	 0	 2	 06	 1	 13	 5.703055e+01	 KashitSour.bmp	 HispusimShatiah.bmp	 17	 13	 1	 u	 1	 1	 787.36	 8.02	 8.04	 
bmem_snacks_110	 0	 2	 06	 1	 14	 6.402172e+01	 BisliGrill.bmp	 KinderBuenoBrown3.bmp	 15	 11	 0	 i	 1	 1	 1036.19	 8.02	 8.09	 
bmem_snacks_110	 0	 2	 06	 1	 15	 6.702516e+01	 ChocolateParaSucariotKoftzot2.bmp	 ChocolateParaMilk3.bmp	 14	 10	 1	 i	 1	 0	 1064.76	 8.02	 8.11	 
bmem_snacks_110	 0	 2	 06	 1	 16	 7.002848e+01	 Bamba.bmp	 BambaNugat.bmp	 42	 41	 0	 u	 5	 0	 901.45	 3.80	 3.82	 
bmem_snacks_110	 0	 2	 06	 1	 17	 8.102416e+01	 Egozi.bmp	 KashitSour.bmp	 18	 17	 0	 i	 1	 1	 657.76	 7.98	 8.02	 
bmem_snacks_110	 0	 2	 06	 1	 18	 9.302094e+01	 Halva2.bmp	 Shugi.bmp	 54	 52	 1	 u	 2	 1	 772.96	 1.69	 1.69	 
bmem_snacks_110	 0	 2	 06	 1	 19	 9.802652e+01	 ChocolateParaMilk3.bmp	 KinderBuenoBrown3.bmp	 10	 11	 0	 u	 1	 0	 1239.39	 8.11	 8.09	 
bmem_snacks_110	 0	 2	 06	 1	 20	 1.010300e+02	 ChocolateParaMarir2.bmp	 ChocolateParaCookies5.bmp	 9	 7	 1	 i	 1	 0	 1003.93	 8.16	 9.07	 
bmem_snacks_110	 0	 2	 06	 1	 21	 1.080211e+02	 BagaleShtuhim.bmp	 Tortit.bmp	 50	 51	 0	 x	 2	 999	 999000.00	 2.64	 2.31	 
bmem_snacks_110	 0	 2	 06	 1	 22	 1.130267e+02	 Halva2.bmp	 BabyDoll.bmp	 54	 53	 1	 i	 2	 0	 823.17	 1.69	 1.69	 
bmem_snacks_110	 0	 2	 06	 1	 23	 1.160300e+02	 Loacker.bmp	 ClickBalls5.bmp	 55	 6	 0	 i	 3	 1	 803.85	 0.64	 9.13	 
bmem_snacks_110	 0	 2	 06	 1	 24	 1.230213e+02	 Bamba.bmp	 BambaNugat.bmp	 42	 41	 0	 u	 5	 0	 636.63	 3.80	 3.82	 
bmem_snacks_110	 0	 2	 06	 1	 25	 1.270258e+02	 KifkefMaklot2.bmp	 Shugi.bmp	 49	 52	 1	 u	 2	 1	 880.10	 2.73	 1.69	 
bmem_snacks_110	 0	 2	 06	 1	 26	 1.300291e+02	 KinderBuenoWhite2.bmp	 KinderBuenoBrown3.bmp	 12	 11	 0	 u	 1	 0	 924.74	 8.07	 8.09	 
bmem_snacks_110	 0	 2	 06	 1	 27	 1.340170e+02	 ChocolateParaMarir2.bmp	 HispusimShatiah.bmp	 9	 13	 1	 i	 1	 0	 848.91	 8.16	 8.04	 
bmem_snacks_110	 0	 2	 06	 1	 28	 1.400236e+02	 ChocolateParaMarir2.bmp	 KinderBuenoWhite2.bmp	 9	 12	 1	 i	 1	 0	 930.29	 8.16	 8.07	 
bmem_snacks_110	 0	 2	 06	 1	 29	 1.430270e+02	 DoritosSourSpicy.bmp	 PesekZman.bmp	 39	 40	 0	 i	 5	 1	 1174.92	 4.84	 4.82	 
bmem_snacks_110	 0	 2	 06	 1	 30	 1.500183e+02	 Egozi.bmp	 GumiSnakes3.bmp	 18	 8	 0	 i	 1	 1	 1103.56	 7.98	 9.02	 
bmem_snacks_110	 0	 2	 06	 1	 31	 1.640173e+02	 KinderBuenoWhite2.bmp	 KashitSour.bmp	 12	 17	 0	 i	 1	 1	 624.63	 8.07	 8.02	 
bmem_snacks_110	 0	 2	 06	 1	 32	 1.680218e+02	 BagaleShtuhim.bmp	 Hit.bmp	 50	 43	 0	 u	 2	 0	 1420.14	 2.64	 3.78	 
bmem_snacks_110	 0	 2	 06	 1	 33	 1.810197e+02	 BagaleShtuhim.bmp	 KifkefMaklot2.bmp	 50	 49	 0	 u	 2	 0	 1126.23	 2.64	 2.73	 
bmem_snacks_110	 0	 2	 06	 1	 34	 1.870264e+02	 ChocolateParaSucariotKoftzot2.bmp	 HispusimShatiah.bmp	 14	 13	 1	 i	 1	 0	 687.48	 8.02	 8.04	 
bmem_snacks_110	 0	 2	 06	 1	 35	 1.900298e+02	 ClickBlackWhite3.bmp	 Tictac.bmp	 5	 56	 1	 u	 3	 1	 860.16	 9.18	 0.62	 
bmem_snacks_110	 0	 2	 06	 1	 36	 1.950188e+02	 ChocolateParaSucariotKoftzot2.bmp	 BisliGrill.bmp	 14	 15	 1	 u	 1	 1	 751.14	 8.02	 8.02	 
bmem_snacks_110	 0	 2	 06	 1	 37	 1.980221e+02	 PesekZman.bmp	 DoritosSourSpicy.bmp	 40	 39	 1	 u	 5	 1	 923.81	 4.82	 4.84	 
bmem_snacks_110	 0	 2	 06	 1	 38	 2.030277e+02	 Hit.bmp	 Twist.bmp	 43	 47	 1	 u	 2	 1	 990.20	 3.78	 2.80	 
bmem_snacks_110	 0	 2	 06	 1	 39	 2.120212e+02	 Halva2.bmp	 Twist.bmp	 54	 47	 1	 u	 2	 1	 1188.74	 1.69	 2.80	 
bmem_snacks_110	 0	 2	 06	 1	 40	 2.160256e+02	 Dubonim.bmp	 HappyHippo.bmp	 44	 46	 0	 i	 2	 1	 976.30	 3.78	 3.67	 
bmem_snacks_110	 0	 2	 06	 1	 41	 2.220154e+02	 Cheetos.bmp	 Shugi.bmp	 48	 52	 1	 u	 2	 1	 826.87	 2.78	 1.69	 
bmem_snacks_110	 0	 2	 06	 1	 42	 2.250190e+02	 ClickBlackWhite3.bmp	 Loacker.bmp	 5	 55	 1	 u	 3	 1	 702.91	 9.18	 0.64	 
bmem_snacks_110	 0	 2	 06	 1	 43	 2.310258e+02	 Egozi.bmp	 ClickBisquit2.bmp	 18	 16	 0	 i	 1	 1	 888.14	 7.98	 8.02	 
bmem_snacks_110	 0	 2	 06	 1	 44	 2.350302e+02	 BagaleShtuhim.bmp	 Halva2.bmp	 50	 54	 0	 i	 2	 1	 915.66	 2.64	 1.69	 
bmem_snacks_110	 0	 2	 06	 1	 45	 2.410204e+02	 HappyHippo.bmp	 BagaleShtuhim.bmp	 46	 50	 1	 u	 2	 1	 885.53	 3.67	 2.64	 
bmem_snacks_110	 0	 2	 06	 1	 46	 2.440237e+02	 Shugi.bmp	 Tortit.bmp	 52	 51	 0	 u	 2	 0	 1306.17	 1.69	 2.31	 
bmem_snacks_110	 0	 2	 06	 1	 47	 2.470270e+02	 Twist.bmp	 Tortit.bmp	 47	 51	 0	 i	 2	 1	 1006.89	 2.80	 2.31	 
bmem_snacks_110	 0	 2	 06	 1	 48	 2.510146e+02	 Shugi.bmp	 Hit.bmp	 52	 43	 0	 u	 2	 0	 1195.30	 1.69	 3.78	 
bmem_snacks_110	 0	 2	 06	 1	 49	 2.590239e+02	 ClickBisquit2.bmp	 HispusimShatiah.bmp	 16	 13	 1	 i	 1	 0	 921.99	 8.02	 8.04	 
bmem_snacks_110	 0	 2	 06	 1	 50	 2.630284e+02	 GumiSnakes3.bmp	 KinderBuenoWhite2.bmp	 8	 12	 1	 u	 1	 1	 837.75	 9.02	 8.07	 
bmem_snacks_110	 0	 2	 06	 1	 51	 2.660148e+02	 GumiSnakes3.bmp	 ChocolateParaCookies5.bmp	 8	 7	 1	 u	 1	 1	 579.16	 9.02	 9.07	 
bmem_snacks_110	 0	 2	 06	 1	 52	 2.690184e+02	 BisliGrill.bmp	 ChocolateParaMarir2.bmp	 15	 9	 0	 u	 1	 0	 991.50	 8.02	 8.16	 
bmem_snacks_110	 0	 2	 06	 1	 53	 2.750252e+02	 ChocolateParaMarir2.bmp	 Egozi.bmp	 9	 18	 1	 i	 1	 0	 1328.74	 8.16	 7.98	 
bmem_snacks_110	 0	 2	 06	 1	 54	 2.790297e+02	 ChocolateParaCookies5.bmp	 KinderBuenoBrown3.bmp	 7	 11	 0	 u	 1	 0	 1356.23	 9.07	 8.09	 
bmem_snacks_110	 0	 2	 06	 1	 55	 2.820331e+02	 CrunchShokoVanil.bmp	 Hit.bmp	 45	 43	 0	 u	 2	 0	 1312.85	 3.73	 3.78	 
bmem_snacks_110	 0	 2	 06	 1	 56	 2.870220e+02	 HappyHippo.bmp	 Twist.bmp	 46	 47	 1	 u	 2	 1	 675.96	 3.67	 2.80	 
bmem_snacks_110	 0	 2	 06	 1	 57	 2.910264e+02	 ChocolateParaMilk3.bmp	 ChocolateParaMarir2.bmp	 10	 9	 0	 u	 1	 0	 1055.49	 8.11	 8.16	 
bmem_snacks_110	 0	 2	 06	 1	 58	 3.000199e+02	 KinderBuenoBrown3.bmp	 Egozi.bmp	 11	 18	 1	 u	 1	 1	 989.97	 8.09	 7.98	 
bmem_snacks_110	 0	 2	 06	 1	 59	 3.050254e+02	 KinderBuenoWhite2.bmp	 ChocolateParaSucariotKoftzot2.bmp	 12	 14	 0	 u	 1	 0	 1136.46	 8.07	 8.02	 
bmem_snacks_110	 0	 2	 06	 1	 60	 3.080289e+02	 HappyHippo.bmp	 CrunchShokoVanil.bmp	 46	 45	 1	 u	 2	 1	 733.04	 3.67	 3.73	 
bmem_snacks_110	 0	 2	 06	 1	 61	 3.130177e+02	 BisliGrill.bmp	 GumiSnakes3.bmp	 15	 8	 0	 i	 1	 1	 592.16	 8.02	 9.02	 
bmem_snacks_110	 0	 2	 06	 1	 62	 3.210267e+02	 Cheetos.bmp	 CrunchShokoVanil.bmp	 48	 45	 1	 x	 2	 999	 999000.00	 2.78	 3.73	 
bmem_snacks_110	 0	 2	 06	 1	 63	 3.240302e+02	 ChocolateParaMilk3.bmp	 GumiSnakes3.bmp	 10	 8	 0	 i	 1	 1	 627.75	 8.11	 9.02	 
bmem_snacks_110	 0	 2	 06	 1	 64	 3.270169e+02	 BabyDoll.bmp	 Cheetos.bmp	 53	 48	 0	 i	 2	 1	 785.03	 1.69	 2.78	 
bmem_snacks_110	 0	 2	 06	 1	 65	 3.300202e+02	 ChocolateParaSucariotKoftzot2.bmp	 ChocolateParaCookies5.bmp	 14	 7	 1	 u	 1	 1	 1053.73	 8.02	 9.07	 
bmem_snacks_110	 0	 2	 06	 1	 66	 3.350258e+02	 Dubonim.bmp	 KifkefMaklot2.bmp	 44	 49	 0	 u	 2	 0	 1176.14	 3.78	 2.73	 
bmem_snacks_110	 0	 2	 06	 1	 67	 3.400144e+02	 ClickBisquit2.bmp	 KinderBuenoWhite2.bmp	 16	 12	 1	 u	 1	 1	 987.51	 8.02	 8.07	 
bmem_snacks_110	 0	 2	 06	 1	 68	 3.430181e+02	 ClickBisquit2.bmp	 ChocolateParaMilk3.bmp	 16	 10	 1	 u	 1	 1	 927.82	 8.02	 8.11	 
bmem_snacks_110	 0	 2	 06	 1	 69	 3.490248e+02	 KashitSour.bmp	 BisliGrill.bmp	 17	 15	 1	 u	 1	 1	 641.07	 8.02	 8.02	 
bmem_snacks_110	 0	 2	 06	 1	 70	 3.530294e+02	 HispusimShatiah.bmp	 KinderBuenoBrown3.bmp	 13	 11	 0	 u	 1	 0	 772.53	 8.04	 8.09	 
bmem_snacks_110	 0	 2	 06	 1	 71	 3.560157e+02	 Dubonim.bmp	 Halva2.bmp	 44	 54	 0	 u	 2	 0	 1074.19	 3.78	 1.69	 
bmem_snacks_110	 0	 2	 06	 1	 72	 3.670284e+02	 Twix.bmp	 Kitkat.bmp	 20	 19	 1	 x	 4	 999	 999000.00	 7.02	 7.07	 
bmem_snacks_110	 0	 2	 06	 1	 73	 3.730184e+02	 KashitSour.bmp	 ChocolateParaCookies5.bmp	 17	 7	 1	 u	 1	 1	 511.47	 8.02	 9.07	 
bmem_snacks_110	 0	 2	 06	 1	 74	 3.780240e+02	 Egozi.bmp	 ChocolateParaSucariotKoftzot2.bmp	 18	 14	 0	 i	 1	 1	 641.91	 7.98	 8.02	 
bmem_snacks_110	 0	 2	 06	 1	 75	 3.810274e+02	 Hit.bmp	 BabyDoll.bmp	 43	 53	 1	 i	 2	 0	 710.49	 3.78	 1.69	 
bmem_snacks_110	 0	 2	 06	 1	 76	 3.850149e+02	 Kitkat.bmp	 Twix.bmp	 19	 20	 0	 u	 4	 0	 594.99	 7.07	 7.02	 
bmem_snacks_110	 0	 2	 06	 1	 77	 3.910220e+02	 BabyDoll.bmp	 HappyHippo.bmp	 53	 46	 0	 i	 2	 1	 963.93	 1.69	 3.67	 
bmem_snacks_110	 0	 2	 06	 1	 78	 3.950265e+02	 BagaleShtuhim.bmp	 Cheetos.bmp	 50	 48	 0	 i	 2	 1	 1159.42	 2.64	 2.78	 
bmem_snacks_110	 0	 2	 06	 1	 79	 3.980298e+02	 Cheetos.bmp	 Twist.bmp	 48	 47	 1	 u	 2	 1	 1012.07	 2.78	 2.80	 
bmem_snacks_110	 0	 2	 06	 1	 80	 4.010166e+02	 Snickers.bmp	 GumiWine2.bmp	 22	 21	 0	 i	 4	 1	 785.35	 6.98	 7.00	 
bmem_snacks_110	 0	 2	 06	 1	 81	 4.050210e+02	 ClickBisquit2.bmp	 ChocolateParaCookies5.bmp	 16	 7	 1	 u	 1	 1	 564.93	 8.02	 9.07	 
bmem_snacks_110	 0	 2	 06	 1	 82	 4.110278e+02	 KashitSour.bmp	 ChocolateParaMilk3.bmp	 17	 10	 1	 u	 1	 1	 526.11	 8.02	 8.11	 
bmem_snacks_110	 0	 2	 06	 1	 83	 4.140311e+02	 KifkefMaklot2.bmp	 CrunchShokoVanil.bmp	 49	 45	 1	 x	 2	 999	 999000.00	 2.73	 3.73	 
bmem_snacks_110	 0	 2	 06	 1	 84	 4.180190e+02	 BisliGrill.bmp	 ClickBisquit2.bmp	 15	 16	 0	 i	 1	 1	 702.95	 8.02	 8.02	 
