subjectID	scanner	order	block	run	trial	onsettime	ImageLeft	ImageRight	bidIndexLeft	bidIndexRight	IsleftGo	Response	PairType	Outcome	RT	bidLeft	bidRight	
bmem_snacks_118	 0	 2	 01	 1	 1	 2.018786e+00	 ChocolateParaMarir2.bmp	 GumiSnakes3.bmp	 9	 13	 1	 u	 1	 1	 722.98	 7.16	 6.91	 
bmem_snacks_118	 0	 2	 01	 1	 2	 5.022226e+00	 Mars.bmp	 KinderBuenoWhite2.bmp	 15	 16	 0	 i	 1	 1	 1295.54	 6.76	 6.64	 
bmem_snacks_118	 0	 2	 01	 1	 3	 1.001079e+01	 WerthersOriginal.bmp	 Apropo.bmp	 45	 51	 0	 u	 2	 0	 1026.97	 1.71	 1.56	 
bmem_snacks_118	 0	 2	 01	 1	 4	 1.301444e+01	 Egozi.bmp	 Apropo.bmp	 52	 51	 0	 i	 2	 1	 1399.34	 1.40	 1.56	 
bmem_snacks_118	 0	 2	 01	 1	 5	 1.601792e+01	 BisliOnion.bmp	 Apropo.bmp	 47	 51	 0	 x	 2	 999	 999000.00	 1.67	 1.56	 
bmem_snacks_118	 0	 2	 01	 1	 6	 2.102346e+01	 Dubonim.bmp	 BambaNugat.bmp	 53	 46	 0	 i	 2	 1	 1150.30	 0.73	 1.69	 
bmem_snacks_118	 0	 2	 01	 1	 7	 2.501108e+01	 GumiSnakes3.bmp	 Kitkat.bmp	 13	 11	 0	 i	 1	 1	 826.70	 6.91	 7.02	 
bmem_snacks_118	 0	 2	 01	 1	 8	 3.001689e+01	 Bamba.bmp	 Mentos.bmp	 48	 44	 1	 i	 2	 0	 1084.89	 1.62	 1.82	 
bmem_snacks_118	 0	 2	 01	 1	 9	 3.602363e+01	 BambaNugat.bmp	 Tapuchips.bmp	 46	 50	 1	 u	 2	 1	 790.15	 1.69	 1.58	 
bmem_snacks_118	 0	 2	 01	 1	 10	 4.101257e+01	 GumiSnakes3.bmp	 PesekZman.bmp	 13	 8	 0	 i	 1	 1	 913.20	 6.91	 7.24	 
bmem_snacks_118	 0	 2	 01	 1	 11	 4.902158e+01	 TapuchipsCrunch.bmp	 Dubonim.bmp	 49	 53	 1	 u	 2	 1	 1096.20	 1.58	 0.73	 
bmem_snacks_118	 0	 2	 01	 1	 12	 5.302605e+01	 Popco.bmp	 KinderBuenoWhite2.bmp	 18	 16	 0	 i	 1	 1	 699.72	 6.04	 6.64	 
bmem_snacks_118	 0	 2	 01	 1	 13	 5.701396e+01	 SkittlesFruits2.bmp	 Egozi.bmp	 43	 52	 1	 i	 2	 0	 991.81	 1.87	 1.40	 
bmem_snacks_118	 0	 2	 01	 1	 14	 6.402178e+01	 HispusimShatiah.bmp	 KinderBuenoBrown3.bmp	 19	 20	 0	 u	 4	 0	 1159.99	 5.82	 5.00	 
bmem_snacks_118	 0	 2	 01	 1	 15	 6.702519e+01	 Twist.bmp	 CrunchShokoVanil.bmp	 39	 40	 0	 u	 5	 0	 1044.58	 2.64	 2.64	 
bmem_snacks_118	 0	 2	 01	 1	 16	 7.001153e+01	 ClickXLbrown4.bmp	 ChocolateParaSucariotKoftzot2.bmp	 17	 7	 1	 i	 1	 0	 874.24	 6.47	 7.40	 
bmem_snacks_118	 0	 2	 01	 1	 17	 8.102424e+01	 Mars.bmp	 Kitkat.bmp	 15	 11	 0	 u	 1	 0	 709.53	 6.76	 7.02	 
bmem_snacks_118	 0	 2	 01	 1	 18	 9.302097e+01	 TapuchipsCrunch.bmp	 WerthersOriginal.bmp	 49	 45	 1	 i	 2	 0	 1312.82	 1.58	 1.71	 
bmem_snacks_118	 0	 2	 01	 1	 19	 9.800988e+01	 TapuchipsCrunch.bmp	 BisliOnion.bmp	 49	 47	 1	 u	 2	 1	 1427.91	 1.58	 1.67	 
bmem_snacks_118	 0	 2	 01	 1	 20	 1.010134e+02	 Popco.bmp	 Mekupelet.bmp	 18	 14	 0	 u	 1	 0	 1208.39	 6.04	 6.91	 
bmem_snacks_118	 0	 2	 01	 1	 21	 1.080212e+02	 Egozi.bmp	 TapuchipsCrunch.bmp	 52	 49	 0	 u	 2	 0	 1152.55	 1.40	 1.58	 
bmem_snacks_118	 0	 2	 01	 1	 22	 1.130099e+02	 ClickXLwhite4.bmp	 Mekupelet.bmp	 10	 14	 0	 u	 1	 0	 1019.84	 7.09	 6.91	 
bmem_snacks_118	 0	 2	 01	 1	 23	 1.160135e+02	 DoritosSourSpicy.bmp	 SkittlesSour4.bmp	 42	 41	 0	 i	 5	 1	 1296.29	 2.62	 2.62	 
bmem_snacks_118	 0	 2	 01	 1	 24	 1.230213e+02	 BisliOnion.bmp	 Loacker.bmp	 47	 54	 0	 i	 2	 1	 920.47	 1.67	 0.73	 
bmem_snacks_118	 0	 2	 01	 1	 25	 1.270258e+02	 WerthersOriginal.bmp	 SkittlesFruits2.bmp	 45	 43	 0	 i	 2	 1	 1035.93	 1.71	 1.87	 
bmem_snacks_118	 0	 2	 01	 1	 26	 1.300126e+02	 Apropo.bmp	 Tapuchips.bmp	 51	 50	 1	 x	 2	 999	 999000.00	 1.56	 1.58	 
bmem_snacks_118	 0	 2	 01	 1	 27	 1.340171e+02	 ClickXLbrown4.bmp	 GumiSnakes3.bmp	 17	 13	 1	 u	 1	 1	 1372.76	 6.47	 6.91	 
bmem_snacks_118	 0	 2	 01	 1	 28	 1.400238e+02	 KashitSour.bmp	 BisliGrill.bmp	 5	 56	 1	 u	 3	 1	 974.00	 7.84	 0.71	 
bmem_snacks_118	 0	 2	 01	 1	 29	 1.430106e+02	 Tapuchips.bmp	 TapuchipsCrunch.bmp	 50	 49	 0	 x	 2	 999	 999000.00	 1.58	 1.58	 
bmem_snacks_118	 0	 2	 01	 1	 30	 1.500184e+02	 DoritosSourSpicy.bmp	 SkittlesSour4.bmp	 42	 41	 0	 i	 5	 1	 915.40	 2.62	 2.62	 
bmem_snacks_118	 0	 2	 01	 1	 31	 1.640174e+02	 Dubonim.bmp	 SkittlesFruits2.bmp	 53	 43	 0	 i	 2	 1	 924.35	 0.73	 1.87	 
bmem_snacks_118	 0	 2	 01	 1	 32	 1.680219e+02	 KashitSour.bmp	 Smarties.bmp	 5	 55	 1	 u	 3	 1	 807.84	 7.84	 0.71	 
bmem_snacks_118	 0	 2	 01	 1	 33	 1.810198e+02	 ClickXLwhite4.bmp	 ChocolateParaMarir2.bmp	 10	 9	 0	 u	 1	 0	 722.01	 7.09	 7.16	 
bmem_snacks_118	 0	 2	 01	 1	 34	 1.870266e+02	 KinderBuenoWhite2.bmp	 GumiSnakes3.bmp	 16	 13	 1	 i	 1	 0	 1139.19	 6.64	 6.91	 
bmem_snacks_118	 0	 2	 01	 1	 35	 1.900133e+02	 ChocolateParaMilk3.bmp	 BisliGrill.bmp	 6	 56	 1	 u	 3	 1	 856.52	 7.49	 0.71	 
bmem_snacks_118	 0	 2	 01	 1	 36	 1.950188e+02	 ChocolateParaSucariotKoftzot2.bmp	 Mekupelet.bmp	 7	 14	 0	 u	 1	 0	 1026.98	 7.40	 6.91	 
bmem_snacks_118	 0	 2	 01	 1	 37	 1.980222e+02	 BambaNugat.bmp	 WerthersOriginal.bmp	 46	 45	 1	 u	 2	 1	 783.56	 1.69	 1.71	 
bmem_snacks_118	 0	 2	 01	 1	 38	 2.030108e+02	 Popco.bmp	 Kitkat.bmp	 18	 11	 0	 i	 1	 1	 786.96	 6.04	 7.02	 
bmem_snacks_118	 0	 2	 01	 1	 39	 2.120213e+02	 Egozi.bmp	 Loacker.bmp	 52	 54	 0	 u	 2	 0	 56.49	 1.40	 0.73	 
bmem_snacks_118	 0	 2	 01	 1	 40	 2.160258e+02	 GumiSnakes3.bmp	 Mekupelet.bmp	 13	 14	 0	 u	 1	 0	 947.97	 6.91	 6.91	 
bmem_snacks_118	 0	 2	 01	 1	 41	 2.220159e+02	 Loacker.bmp	 Dubonim.bmp	 54	 53	 1	 u	 2	 1	 957.87	 0.73	 0.73	 
bmem_snacks_118	 0	 2	 01	 1	 42	 2.250191e+02	 TapuchipsCrunch.bmp	 Mentos.bmp	 49	 44	 1	 i	 2	 0	 1026.62	 1.58	 1.82	 
bmem_snacks_118	 0	 2	 01	 1	 43	 2.310260e+02	 PesekZman.bmp	 Popco.bmp	 8	 18	 1	 i	 1	 0	 907.84	 7.24	 6.04	 
bmem_snacks_118	 0	 2	 01	 1	 44	 2.350137e+02	 Twix.bmp	 ChocolateParaMarir2.bmp	 12	 9	 0	 i	 1	 1	 832.06	 7.02	 7.16	 
bmem_snacks_118	 0	 2	 01	 1	 45	 2.410205e+02	 Bamba.bmp	 Dubonim.bmp	 48	 53	 1	 u	 2	 1	 809.31	 1.62	 0.73	 
bmem_snacks_118	 0	 2	 01	 1	 46	 2.440239e+02	 KinderBuenoBrown3.bmp	 HispusimShatiah.bmp	 20	 19	 1	 i	 4	 0	 989.87	 5.00	 5.82	 
bmem_snacks_118	 0	 2	 01	 1	 47	 2.470273e+02	 Twix.bmp	 ClickXLbrown4.bmp	 12	 17	 0	 i	 1	 1	 1026.49	 7.02	 6.47	 
bmem_snacks_118	 0	 2	 01	 1	 48	 2.510151e+02	 Mentos.bmp	 Apropo.bmp	 44	 51	 0	 u	 2	 0	 926.70	 1.82	 1.56	 
bmem_snacks_118	 0	 2	 01	 1	 49	 2.590241e+02	 Mekupelet.bmp	 Twix.bmp	 14	 12	 1	 i	 1	 0	 1117.72	 6.91	 7.02	 
bmem_snacks_118	 0	 2	 01	 1	 50	 2.630116e+02	 Loacker.bmp	 Tapuchips.bmp	 54	 50	 1	 u	 2	 1	 1050.16	 0.73	 1.58	 
bmem_snacks_118	 0	 2	 01	 1	 51	 2.660153e+02	 Bamba.bmp	 BisliOnion.bmp	 48	 47	 1	 u	 2	 1	 1070.53	 1.62	 1.67	 
bmem_snacks_118	 0	 2	 01	 1	 52	 2.690187e+02	 PesekZman.bmp	 ChocolateParaSucariotKoftzot2.bmp	 8	 7	 1	 i	 1	 0	 1099.16	 7.24	 7.40	 
bmem_snacks_118	 0	 2	 01	 1	 53	 2.750254e+02	 Kitkat.bmp	 Twix.bmp	 11	 12	 1	 u	 1	 1	 796.39	 7.02	 7.02	 
bmem_snacks_118	 0	 2	 01	 1	 54	 2.790133e+02	 KinderBuenoWhite2.bmp	 Twix.bmp	 16	 12	 1	 u	 1	 1	 728.52	 6.64	 7.02	 
bmem_snacks_118	 0	 2	 01	 1	 55	 2.820165e+02	 ClickXLbrown4.bmp	 ClickXLwhite4.bmp	 17	 10	 1	 i	 1	 0	 1045.26	 6.47	 7.09	 
bmem_snacks_118	 0	 2	 01	 1	 56	 2.870221e+02	 ChocolateParaSucariotKoftzot2.bmp	 KinderBuenoWhite2.bmp	 7	 16	 0	 i	 1	 1	 823.62	 7.40	 6.64	 
bmem_snacks_118	 0	 2	 01	 1	 57	 2.910267e+02	 BambaNugat.bmp	 Mentos.bmp	 46	 44	 1	 u	 2	 1	 1051.12	 1.69	 1.82	 
bmem_snacks_118	 0	 2	 01	 1	 58	 3.000201e+02	 Kitkat.bmp	 ChocolateParaSucariotKoftzot2.bmp	 11	 7	 1	 i	 1	 0	 1057.71	 7.02	 7.40	 
bmem_snacks_118	 0	 2	 01	 1	 59	 3.050257e+02	 Egozi.bmp	 BambaNugat.bmp	 52	 46	 0	 u	 2	 0	 1284.12	 1.40	 1.69	 
bmem_snacks_118	 0	 2	 01	 1	 60	 3.080125e+02	 BisliOnion.bmp	 BambaNugat.bmp	 47	 46	 0	 i	 2	 1	 905.31	 1.67	 1.69	 
bmem_snacks_118	 0	 2	 01	 1	 61	 3.130180e+02	 BisliOnion.bmp	 SkittlesFruits2.bmp	 47	 43	 0	 i	 2	 1	 1291.77	 1.67	 1.87	 
bmem_snacks_118	 0	 2	 01	 1	 62	 3.210101e+02	 ChocolateParaSucariotKoftzot2.bmp	 ChocolateParaMarir2.bmp	 7	 9	 0	 i	 1	 1	 851.71	 7.40	 7.16	 
bmem_snacks_118	 0	 2	 01	 1	 63	 3.240137e+02	 Mars.bmp	 ChocolateParaMarir2.bmp	 15	 9	 0	 u	 1	 0	 1312.14	 6.76	 7.16	 
bmem_snacks_118	 0	 2	 01	 1	 64	 3.270170e+02	 Apropo.bmp	 Dubonim.bmp	 51	 53	 1	 u	 2	 1	 1236.75	 1.56	 0.73	 
bmem_snacks_118	 0	 2	 01	 1	 65	 3.300204e+02	 SkittlesFruits2.bmp	 Mentos.bmp	 43	 44	 1	 u	 2	 1	 1049.37	 1.87	 1.82	 
bmem_snacks_118	 0	 2	 01	 1	 66	 3.350260e+02	 Tapuchips.bmp	 SkittlesFruits2.bmp	 50	 43	 0	 i	 2	 1	 907.74	 1.58	 1.87	 
bmem_snacks_118	 0	 2	 01	 1	 67	 3.400150e+02	 Tapuchips.bmp	 Bamba.bmp	 50	 48	 0	 x	 2	 999	 999000.00	 1.58	 1.62	 
bmem_snacks_118	 0	 2	 01	 1	 68	 3.430184e+02	 ClickXLbrown4.bmp	 Popco.bmp	 17	 18	 1	 u	 1	 1	 795.41	 6.47	 6.04	 
bmem_snacks_118	 0	 2	 01	 1	 69	 3.490251e+02	 GumiWine2.bmp	 ClickBlackWhite3.bmp	 21	 22	 1	 u	 4	 1	 1268.67	 4.98	 4.89	 
bmem_snacks_118	 0	 2	 01	 1	 70	 3.530130e+02	 PesekZman.bmp	 Twix.bmp	 8	 12	 1	 i	 1	 0	 1368.80	 7.24	 7.02	 
bmem_snacks_118	 0	 2	 01	 1	 71	 3.560162e+02	 Mars.bmp	 ClickXLbrown4.bmp	 15	 17	 0	 i	 1	 1	 1093.54	 6.76	 6.47	 
bmem_snacks_118	 0	 2	 01	 1	 72	 3.670119e+02	 CrunchShokoVanil.bmp	 Twist.bmp	 40	 39	 1	 u	 5	 1	 1025.93	 2.64	 2.64	 
bmem_snacks_118	 0	 2	 01	 1	 73	 3.730187e+02	 Loacker.bmp	 WerthersOriginal.bmp	 54	 45	 1	 u	 2	 1	 915.06	 0.73	 1.71	 
bmem_snacks_118	 0	 2	 01	 1	 74	 3.780243e+02	 ClickXLwhite4.bmp	 Kitkat.bmp	 10	 11	 0	 u	 1	 0	 709.46	 7.09	 7.02	 
bmem_snacks_118	 0	 2	 01	 1	 75	 3.810107e+02	 ClickBlackWhite3.bmp	 GumiWine2.bmp	 22	 21	 0	 i	 4	 1	 1179.03	 4.89	 4.98	 
bmem_snacks_118	 0	 2	 01	 1	 76	 3.850155e+02	 Mekupelet.bmp	 Mars.bmp	 14	 15	 1	 u	 1	 1	 102.29	 6.91	 6.76	 
bmem_snacks_118	 0	 2	 01	 1	 77	 3.910222e+02	 ClickXLwhite4.bmp	 PesekZman.bmp	 10	 8	 0	 u	 1	 0	 767.60	 7.09	 7.24	 
bmem_snacks_118	 0	 2	 01	 1	 78	 3.950267e+02	 PesekZman.bmp	 Mars.bmp	 8	 15	 1	 i	 1	 0	 923.10	 7.24	 6.76	 
bmem_snacks_118	 0	 2	 01	 1	 79	 3.980133e+02	 Loacker.bmp	 Mentos.bmp	 54	 44	 1	 i	 2	 0	 992.46	 0.73	 1.82	 
bmem_snacks_118	 0	 2	 01	 1	 80	 4.010167e+02	 ChocolateParaMarir2.bmp	 Popco.bmp	 9	 18	 1	 u	 1	 1	 629.07	 7.16	 6.04	 
bmem_snacks_118	 0	 2	 01	 1	 81	 4.050213e+02	 Bamba.bmp	 WerthersOriginal.bmp	 48	 45	 1	 i	 2	 0	 1032.51	 1.62	 1.71	 
bmem_snacks_118	 0	 2	 01	 1	 82	 4.110110e+02	 Egozi.bmp	 Bamba.bmp	 52	 48	 0	 u	 2	 0	 1114.74	 1.40	 1.62	 
bmem_snacks_118	 0	 2	 01	 1	 83	 4.140147e+02	 KinderBuenoWhite2.bmp	 ClickXLwhite4.bmp	 16	 10	 1	 i	 1	 0	 903.10	 6.64	 7.09	 
bmem_snacks_118	 0	 2	 01	 1	 84	 4.180193e+02	 Smarties.bmp	 ChocolateParaMilk3.bmp	 55	 6	 0	 i	 3	 1	 970.48	 0.71	 7.49	 
