subjectID	scanner	order	block	run	trial	onsettime	ImageLeft	ImageRight	bidIndexLeft	bidIndexRight	IsleftGo	Response	PairType	Outcome	RT	bidLeft	bidRight	
bmem_snacks_115	 0	 1	 03	 1	 1	 2.018706e+00	 CrunchBisquitWhite2.bmp	 Twix.bmp	 17	 15	 0	 u	 1	 0	 922.46	 3.38	 3.82	 
bmem_snacks_115	 0	 1	 03	 1	 2	 7.024358e+00	 CrunchBisquitWhite2.bmp	 Cheetos.bmp	 17	 10	 0	 i	 1	 1	 588.81	 3.38	 3.89	 
bmem_snacks_115	 0	 1	 03	 1	 3	 1.701897e+01	 WerthersOriginal.bmp	 CrunchBisquitWhite2.bmp	 7	 17	 1	 u	 1	 1	 850.22	 4.78	 3.38	 
bmem_snacks_115	 0	 1	 03	 1	 4	 2.102343e+01	 Popco.bmp	 Keifli.bmp	 8	 12	 0	 i	 1	 1	 1117.75	 4.73	 3.87	 
bmem_snacks_115	 0	 1	 03	 1	 5	 2.601209e+01	 ChocolateParaSucariotKoftzot2.bmp	 KinderBuenoBrown3.bmp	 20	 19	 0	 u	 4	 0	 833.08	 3.29	 3.29	 
bmem_snacks_115	 0	 1	 03	 1	 6	 3.201917e+01	 Dubonim.bmp	 Loacker.bmp	 54	 47	 0	 i	 2	 1	 834.00	 0.27	 0.60	 
bmem_snacks_115	 0	 1	 03	 1	 7	 3.702473e+01	 BisliOnion.bmp	 HispusimShatiah.bmp	 45	 49	 1	 u	 2	 1	 948.44	 1.02	 0.58	 
bmem_snacks_115	 0	 1	 03	 1	 8	 4.001111e+01	 Kitkat.bmp	 Twix.bmp	 14	 15	 0	 u	 1	 0	 1442.04	 3.87	 3.82	 
bmem_snacks_115	 0	 1	 03	 1	 9	 4.301473e+01	 ClickXLwhite4.bmp	 BisliOnion.bmp	 51	 45	 0	 u	 2	 0	 902.44	 0.58	 1.02	 
bmem_snacks_115	 0	 1	 03	 1	 10	 4.601821e+01	 Keifli.bmp	 TapuchipsCrunch.bmp	 12	 16	 1	 i	 1	 0	 658.97	 3.87	 3.76	 
bmem_snacks_115	 0	 1	 03	 1	 11	 4.902153e+01	 Tapuchips.bmp	 CrunchBisquitWhite2.bmp	 18	 17	 1	 u	 1	 1	 727.63	 3.36	 3.38	 
bmem_snacks_115	 0	 1	 03	 1	 12	 5.601279e+01	 Bamba.bmp	 BisliPizza3.bmp	 6	 55	 1	 u	 3	 1	 1048.38	 4.89	 0.16	 
bmem_snacks_115	 0	 1	 03	 1	 13	 5.901615e+01	 Tapuchips.bmp	 ChocolateParaCookies5.bmp	 18	 11	 1	 u	 1	 1	 829.02	 3.36	 3.89	 
bmem_snacks_115	 0	 1	 03	 1	 14	 6.201950e+01	 ClickXLbrown4.bmp	 CrunchShokoVanil.bmp	 43	 50	 0	 u	 2	 0	 929.67	 1.20	 0.58	 
bmem_snacks_115	 0	 1	 03	 1	 15	 6.702516e+01	 ClickXLbrown4.bmp	 BisliOnion.bmp	 43	 45	 0	 u	 2	 0	 844.01	 1.20	 1.02	 
bmem_snacks_115	 0	 1	 03	 1	 16	 7.301515e+01	 CrunchBisquitWhite2.bmp	 Keifli.bmp	 17	 12	 0	 u	 1	 0	 853.99	 3.38	 3.87	 
bmem_snacks_115	 0	 1	 03	 1	 17	 7.802074e+01	 TapuchipsCrunch.bmp	 Tapuchips.bmp	 16	 18	 0	 u	 1	 0	 560.44	 3.76	 3.36	 
bmem_snacks_115	 0	 1	 03	 1	 18	 8.302644e+01	 Snickers.bmp	 Egozi.bmp	 13	 9	 1	 u	 1	 1	 938.73	 3.87	 4.04	 
bmem_snacks_115	 0	 1	 03	 1	 19	 9.201986e+01	 GumiSnakes3.bmp	 Apropo.bmp	 41	 42	 0	 u	 5	 0	 1153.32	 1.67	 1.44	 
bmem_snacks_115	 0	 1	 03	 1	 20	 9.702547e+01	 WerthersOriginal.bmp	 Kitkat.bmp	 7	 14	 1	 u	 1	 1	 595.70	 4.78	 3.87	 
bmem_snacks_115	 0	 1	 03	 1	 21	 1.030156e+02	 Apropo.bmp	 GumiSnakes3.bmp	 42	 41	 1	 i	 5	 0	 1037.59	 1.44	 1.67	 
bmem_snacks_115	 0	 1	 03	 1	 22	 1.060188e+02	 BabyDoll.bmp	 Shugi.bmp	 40	 39	 0	 u	 5	 0	 1074.34	 1.67	 1.69	 
bmem_snacks_115	 0	 1	 03	 1	 23	 1.190168e+02	 ChocolateParaMarir2.bmp	 ChocolateParaMilk3.bmp	 21	 22	 0	 i	 4	 1	 924.39	 3.24	 3.20	 
bmem_snacks_115	 0	 1	 03	 1	 24	 1.230213e+02	 SkittlesFruits2.bmp	 CrunchShokoVanil.bmp	 48	 50	 0	 u	 2	 0	 791.89	 0.60	 0.58	 
bmem_snacks_115	 0	 1	 03	 1	 25	 1.290113e+02	 Bounty.bmp	 SkittlesSour4.bmp	 46	 52	 0	 u	 2	 0	 929.84	 0.60	 0.58	 
bmem_snacks_115	 0	 1	 03	 1	 26	 1.360192e+02	 ClickXLwhite4.bmp	 Loacker.bmp	 51	 47	 0	 i	 2	 1	 929.94	 0.58	 0.60	 
bmem_snacks_115	 0	 1	 03	 1	 27	 1.410249e+02	 Twix.bmp	 Egozi.bmp	 15	 9	 1	 u	 1	 1	 1172.30	 3.82	 4.04	 
bmem_snacks_115	 0	 1	 03	 1	 28	 1.440113e+02	 Bounty.bmp	 Loacker.bmp	 46	 47	 0	 i	 2	 1	 825.90	 0.60	 0.60	 
bmem_snacks_115	 0	 1	 03	 1	 29	 1.470150e+02	 Loacker.bmp	 HispusimShatiah.bmp	 47	 49	 1	 u	 2	 1	 766.22	 0.60	 0.58	 
bmem_snacks_115	 0	 1	 03	 1	 30	 1.500182e+02	 Loacker.bmp	 ClickXLbrown4.bmp	 47	 43	 1	 i	 2	 0	 826.92	 0.60	 1.20	 
bmem_snacks_115	 0	 1	 03	 1	 31	 1.530217e+02	 CrunchShokoVanil.bmp	 HispusimShatiah.bmp	 50	 49	 1	 u	 2	 1	 631.44	 0.58	 0.58	 
bmem_snacks_115	 0	 1	 03	 1	 32	 1.570262e+02	 Cheetos.bmp	 ChocolateParaCookies5.bmp	 10	 11	 1	 u	 1	 1	 986.98	 3.89	 3.89	 
bmem_snacks_115	 0	 1	 03	 1	 33	 1.600129e+02	 SkittlesSour4.bmp	 SkittlesFruits2.bmp	 52	 48	 1	 u	 2	 1	 944.27	 0.58	 0.60	 
bmem_snacks_115	 0	 1	 03	 1	 34	 1.690230e+02	 TapuchipsCrunch.bmp	 WerthersOriginal.bmp	 16	 7	 0	 i	 1	 1	 798.15	 3.76	 4.78	 
bmem_snacks_115	 0	 1	 03	 1	 35	 1.730275e+02	 Keifli.bmp	 Egozi.bmp	 12	 9	 1	 i	 1	 0	 1017.71	 3.87	 4.04	 
bmem_snacks_115	 0	 1	 03	 1	 36	 1.760141e+02	 Snickers.bmp	 Popco.bmp	 13	 8	 1	 u	 1	 1	 831.03	 3.87	 4.73	 
bmem_snacks_115	 0	 1	 03	 1	 37	 1.880277e+02	 Bounty.bmp	 BisliOnion.bmp	 46	 45	 0	 u	 2	 0	 1193.49	 0.60	 1.02	 
bmem_snacks_115	 0	 1	 03	 1	 38	 1.920155e+02	 ChocolateParaMarir2.bmp	 ChocolateParaMilk3.bmp	 21	 22	 0	 x	 4	 999	 999000.00	 3.24	 3.20	 
bmem_snacks_115	 0	 1	 03	 1	 39	 1.950188e+02	 Kitkat.bmp	 Keifli.bmp	 14	 12	 0	 u	 1	 0	 1162.36	 3.87	 3.87	 
bmem_snacks_115	 0	 1	 03	 1	 40	 1.990233e+02	 Loacker.bmp	 SkittlesFruits2.bmp	 47	 48	 1	 u	 2	 1	 853.89	 0.60	 0.60	 
bmem_snacks_115	 0	 1	 03	 1	 41	 2.030110e+02	 Dubonim.bmp	 KashitSour.bmp	 54	 53	 0	 u	 2	 0	 1434.21	 0.27	 0.27	 
bmem_snacks_115	 0	 1	 03	 1	 42	 2.080168e+02	 ClickXLbrown4.bmp	 KashitSour.bmp	 43	 53	 0	 u	 2	 0	 788.39	 1.20	 0.27	 
bmem_snacks_115	 0	 1	 03	 1	 43	 2.160257e+02	 Cheetos.bmp	 Kitkat.bmp	 10	 14	 1	 i	 1	 0	 947.47	 3.89	 3.87	 
bmem_snacks_115	 0	 1	 03	 1	 44	 2.200135e+02	 Dubonim.bmp	 DoritosNatural.bmp	 54	 44	 0	 u	 2	 0	 1095.62	 0.27	 1.13	 
bmem_snacks_115	 0	 1	 03	 1	 45	 2.240180e+02	 SkittlesSour4.bmp	 Dubonim.bmp	 52	 54	 1	 u	 2	 1	 1339.16	 0.58	 0.27	 
bmem_snacks_115	 0	 1	 03	 1	 46	 2.380172e+02	 KashitSour.bmp	 Bounty.bmp	 53	 46	 1	 u	 2	 1	 1092.02	 0.27	 0.60	 
bmem_snacks_115	 0	 1	 03	 1	 47	 2.410204e+02	 ClickXLbrown4.bmp	 SkittlesSour4.bmp	 43	 52	 0	 u	 2	 0	 928.72	 1.20	 0.58	 
bmem_snacks_115	 0	 1	 03	 1	 48	 2.450249e+02	 Twix.bmp	 Popco.bmp	 15	 8	 1	 u	 1	 1	 660.23	 3.82	 4.73	 
bmem_snacks_115	 0	 1	 03	 1	 49	 2.490128e+02	 Dubonim.bmp	 CrunchShokoVanil.bmp	 54	 50	 0	 x	 2	 999	 999000.00	 0.27	 0.58	 
bmem_snacks_115	 0	 1	 03	 1	 50	 2.550195e+02	 ClickXLbrown4.bmp	 DoritosNatural.bmp	 43	 44	 0	 u	 2	 0	 857.69	 1.20	 1.13	 
bmem_snacks_115	 0	 1	 03	 1	 51	 2.580229e+02	 CrunchShokoVanil.bmp	 ClickXLwhite4.bmp	 50	 51	 1	 u	 2	 1	 1278.29	 0.58	 0.58	 
bmem_snacks_115	 0	 1	 03	 1	 52	 2.610262e+02	 Snickers.bmp	 Kitkat.bmp	 13	 14	 1	 i	 1	 0	 1130.94	 3.87	 3.87	 
bmem_snacks_115	 0	 1	 03	 1	 53	 2.660152e+02	 Cheetos.bmp	 Egozi.bmp	 10	 9	 1	 i	 1	 0	 949.94	 3.89	 4.04	 
bmem_snacks_115	 0	 1	 03	 1	 54	 2.760264e+02	 KashitSour.bmp	 SkittlesFruits2.bmp	 53	 48	 1	 i	 2	 0	 970.75	 0.27	 0.60	 
bmem_snacks_115	 0	 1	 03	 1	 55	 2.790132e+02	 ChocolateParaCookies5.bmp	 Twix.bmp	 11	 15	 0	 i	 1	 1	 1263.98	 3.89	 3.82	 
bmem_snacks_115	 0	 1	 03	 1	 56	 2.820165e+02	 Shugi.bmp	 BabyDoll.bmp	 39	 40	 1	 i	 5	 0	 1052.65	 1.69	 1.67	 
bmem_snacks_115	 0	 1	 03	 1	 57	 2.870221e+02	 Keifli.bmp	 ChocolateParaCookies5.bmp	 12	 11	 1	 u	 1	 1	 1191.12	 3.87	 3.89	 
bmem_snacks_115	 0	 1	 03	 1	 58	 2.900255e+02	 ChocolateParaCookies5.bmp	 WerthersOriginal.bmp	 11	 7	 0	 i	 1	 1	 675.70	 3.89	 4.78	 
bmem_snacks_115	 0	 1	 03	 1	 59	 2.960156e+02	 BisliGrill.bmp	 Bamba.bmp	 56	 6	 0	 i	 3	 1	 877.62	 0.16	 4.89	 
bmem_snacks_115	 0	 1	 03	 1	 60	 2.990189e+02	 KashitSour.bmp	 HispusimShatiah.bmp	 53	 49	 1	 i	 2	 0	 1082.23	 0.27	 0.58	 
bmem_snacks_115	 0	 1	 03	 1	 61	 3.040245e+02	 HappyHippo.bmp	 BisliPizza3.bmp	 5	 55	 1	 u	 3	 1	 1004.65	 4.98	 0.16	 
bmem_snacks_115	 0	 1	 03	 1	 62	 3.070109e+02	 KinderBuenoBrown3.bmp	 ChocolateParaSucariotKoftzot2.bmp	 19	 20	 1	 u	 4	 1	 818.23	 3.29	 3.29	 
bmem_snacks_115	 0	 1	 03	 1	 63	 3.150202e+02	 DoritosNatural.bmp	 SkittlesFruits2.bmp	 44	 48	 1	 i	 2	 0	 953.03	 1.13	 0.60	 
bmem_snacks_115	 0	 1	 03	 1	 64	 3.190247e+02	 BisliOnion.bmp	 Dubonim.bmp	 45	 54	 1	 i	 2	 0	 1356.45	 1.02	 0.27	 
bmem_snacks_115	 0	 1	 03	 1	 65	 3.230122e+02	 CrunchShokoVanil.bmp	 Bounty.bmp	 50	 46	 1	 u	 2	 1	 1025.01	 0.58	 0.60	 
bmem_snacks_115	 0	 1	 03	 1	 66	 3.280181e+02	 ClickXLwhite4.bmp	 DoritosNatural.bmp	 51	 44	 0	 u	 2	 0	 995.09	 0.58	 1.13	 
bmem_snacks_115	 0	 1	 03	 1	 67	 3.320226e+02	 SkittlesFruits2.bmp	 BisliOnion.bmp	 48	 45	 0	 u	 2	 0	 1454.60	 0.60	 1.02	 
bmem_snacks_115	 0	 1	 03	 1	 68	 3.370113e+02	 BisliGrill.bmp	 HappyHippo.bmp	 56	 5	 0	 i	 3	 1	 913.89	 0.16	 4.98	 
bmem_snacks_115	 0	 1	 03	 1	 69	 3.450205e+02	 ClickXLwhite4.bmp	 SkittlesSour4.bmp	 51	 52	 0	 x	 2	 999	 999000.00	 0.58	 0.58	 
bmem_snacks_115	 0	 1	 03	 1	 70	 3.480239e+02	 Bounty.bmp	 DoritosNatural.bmp	 46	 44	 0	 i	 2	 1	 661.23	 0.60	 1.13	 
bmem_snacks_115	 0	 1	 03	 1	 71	 3.510273e+02	 WerthersOriginal.bmp	 Popco.bmp	 7	 8	 1	 u	 1	 1	 697.93	 4.78	 4.73	 
bmem_snacks_115	 0	 1	 03	 1	 72	 3.560162e+02	 HispusimShatiah.bmp	 SkittlesSour4.bmp	 49	 52	 0	 i	 2	 1	 1189.01	 0.58	 0.58	 
bmem_snacks_115	 0	 1	 03	 1	 73	 3.600207e+02	 Snickers.bmp	 CrunchBisquitWhite2.bmp	 13	 17	 1	 u	 1	 1	 856.50	 3.87	 3.38	 
bmem_snacks_115	 0	 1	 03	 1	 74	 3.630241e+02	 Popco.bmp	 Cheetos.bmp	 8	 10	 0	 u	 1	 0	 1173.11	 4.73	 3.89	 
bmem_snacks_115	 0	 1	 03	 1	 75	 3.740198e+02	 HispusimShatiah.bmp	 DoritosNatural.bmp	 49	 44	 0	 u	 2	 0	 1041.42	 0.58	 1.13	 
bmem_snacks_115	 0	 1	 03	 1	 76	 3.840143e+02	 TapuchipsCrunch.bmp	 Snickers.bmp	 16	 13	 0	 u	 1	 0	 726.89	 3.76	 3.87	 
bmem_snacks_115	 0	 1	 03	 1	 77	 3.890199e+02	 Tapuchips.bmp	 Popco.bmp	 18	 8	 1	 u	 1	 1	 633.26	 3.36	 4.73	 
bmem_snacks_115	 0	 1	 03	 1	 78	 3.930244e+02	 Snickers.bmp	 ChocolateParaCookies5.bmp	 13	 11	 1	 u	 1	 1	 652.79	 3.87	 3.89	 
bmem_snacks_115	 0	 1	 03	 1	 79	 3.970119e+02	 Cheetos.bmp	 TapuchipsCrunch.bmp	 10	 16	 1	 i	 1	 0	 905.27	 3.89	 3.76	 
bmem_snacks_115	 0	 1	 03	 1	 80	 4.010167e+02	 KashitSour.bmp	 ClickXLwhite4.bmp	 53	 51	 1	 u	 2	 1	 1028.51	 0.27	 0.58	 
bmem_snacks_115	 0	 1	 03	 1	 81	 4.070235e+02	 Tapuchips.bmp	 Egozi.bmp	 18	 9	 1	 u	 1	 1	 557.72	 3.36	 4.04	 
bmem_snacks_115	 0	 1	 03	 1	 82	 4.100268e+02	 Kitkat.bmp	 Tapuchips.bmp	 14	 18	 0	 i	 1	 1	 858.40	 3.87	 3.36	 
bmem_snacks_115	 0	 1	 03	 1	 83	 4.140147e+02	 WerthersOriginal.bmp	 Egozi.bmp	 7	 9	 1	 u	 1	 1	 950.52	 4.78	 4.04	 
bmem_snacks_115	 0	 1	 03	 1	 84	 4.180192e+02	 TapuchipsCrunch.bmp	 Twix.bmp	 16	 15	 0	 u	 1	 0	 505.96	 3.76	 3.82	 
