subjectID	scanner	order	block	run	trial	onsettime	ImageLeft	ImageRight	bidIndexLeft	bidIndexRight	IsleftGo	Response	PairType	Outcome	RT	bidLeft	bidRight	
bmem_snacks_130	 0	 2	 03	 1	 1	 2.018827e+00	 CrunchBisquitBrown3.bmp	 ClickBlackWhite3.bmp	 9	 7	 1	 u	 1	 1	 925.11	 7.40	 8.04	 
bmem_snacks_130	 0	 2	 03	 1	 2	 8.025457e+00	 SkittlesFruits2.bmp	 ClickXLbrown4.bmp	 18	 14	 0	 i	 1	 1	 1038.49	 6.38	 6.49	 
bmem_snacks_130	 0	 2	 03	 1	 3	 1.102885e+01	 SkittlesSour4.bmp	 Kitkat.bmp	 17	 15	 1	 i	 1	 0	 1115.09	 6.44	 6.47	 
bmem_snacks_130	 0	 2	 03	 1	 4	 1.802002e+01	 ClickXLbrown4.bmp	 Dubonim.bmp	 14	 12	 1	 u	 1	 1	 875.92	 6.49	 6.98	 
bmem_snacks_130	 0	 2	 03	 1	 5	 2.102340e+01	 ClickBlackWhite3.bmp	 SkittlesSour4.bmp	 7	 17	 0	 u	 1	 0	 960.55	 8.04	 6.44	 
bmem_snacks_130	 0	 2	 03	 1	 6	 2.602904e+01	 ChocolateParaSucariotKoftzot2.bmp	 ClickBlackWhite3.bmp	 16	 7	 1	 i	 1	 0	 1290.90	 6.47	 8.04	 
bmem_snacks_130	 0	 2	 03	 1	 7	 3.101760e+01	 PesekZman.bmp	 ChocolateParaCookies5.bmp	 8	 10	 1	 u	 1	 1	 1254.36	 8.02	 7.02	 
bmem_snacks_130	 0	 2	 03	 1	 8	 3.402130e+01	 ClickXLbrown4.bmp	 ClickBlackWhite3.bmp	 14	 7	 1	 u	 1	 1	 882.64	 6.49	 8.04	 
bmem_snacks_130	 0	 2	 03	 1	 9	 3.802574e+01	 Halva2.bmp	 Taami.bmp	 53	 54	 0	 i	 2	 1	 926.20	 3.18	 2.78	 
bmem_snacks_130	 0	 2	 03	 1	 10	 4.102911e+01	 KashitSour.bmp	 BabyDoll.bmp	 50	 48	 0	 u	 2	 0	 1426.84	 3.24	 3.31	 
bmem_snacks_130	 0	 2	 03	 1	 11	 4.503362e+01	 TapuchipsCrunch.bmp	 KinderBuenoWhite2.bmp	 41	 42	 1	 i	 5	 0	 1358.33	 3.82	 3.80	 
bmem_snacks_130	 0	 2	 03	 1	 12	 5.002248e+01	 ClickBlackWhite3.bmp	 GumiWine2.bmp	 7	 11	 0	 u	 1	 0	 753.46	 8.04	 6.98	 
bmem_snacks_130	 0	 2	 03	 1	 13	 5.302594e+01	 ClickBlackWhite3.bmp	 PesekZman.bmp	 7	 8	 0	 i	 1	 1	 894.04	 8.04	 8.02	 
bmem_snacks_130	 0	 2	 03	 1	 14	 5.602929e+01	 Taami.bmp	 Bamba.bmp	 54	 47	 1	 u	 2	 1	 1138.64	 2.78	 3.76	 
bmem_snacks_130	 0	 2	 03	 1	 15	 6.101794e+01	 Hit.bmp	 GumiWine2.bmp	 13	 11	 0	 u	 1	 0	 1134.01	 6.96	 6.98	 
bmem_snacks_130	 0	 2	 03	 1	 16	 6.902718e+01	 BabyDoll.bmp	 ChocolateParaMarir2.bmp	 48	 44	 1	 u	 2	 1	 1244.76	 3.31	 3.78	 
bmem_snacks_130	 0	 2	 03	 1	 17	 7.403278e+01	 Smarties.bmp	 GumiSnakes3.bmp	 49	 52	 1	 u	 2	 1	 1327.16	 3.29	 3.22	 
bmem_snacks_130	 0	 2	 03	 1	 18	 8.202509e+01	 BagaleShtuhim.bmp	 Twix.bmp	 22	 21	 0	 i	 4	 1	 1134.85	 5.87	 5.91	 
bmem_snacks_130	 0	 2	 03	 1	 19	 8.602959e+01	 ClickXLbrown4.bmp	 ChocolateParaCookies5.bmp	 14	 10	 1	 i	 1	 0	 978.35	 6.49	 7.02	 
bmem_snacks_130	 0	 2	 03	 1	 20	 8.903295e+01	 Halva2.bmp	 BisliGrill.bmp	 53	 43	 0	 x	 2	 999	 999000.00	 3.18	 3.80	 
bmem_snacks_130	 0	 2	 03	 1	 21	 9.201964e+01	 SkittlesSour4.bmp	 Hit.bmp	 17	 13	 1	 i	 1	 0	 876.31	 6.44	 6.96	 
bmem_snacks_130	 0	 2	 03	 1	 22	 9.502297e+01	 ChocolateParaCookies5.bmp	 ChocolateParaSucariotKoftzot2.bmp	 10	 16	 0	 u	 1	 0	 1032.97	 7.02	 6.47	 
bmem_snacks_130	 0	 2	 03	 1	 23	 9.902748e+01	 SkittlesFruits2.bmp	 GumiWine2.bmp	 18	 11	 0	 u	 1	 0	 1436.46	 6.38	 6.98	 
bmem_snacks_130	 0	 2	 03	 1	 24	 1.030319e+02	 ClickXLbrown4.bmp	 Kitkat.bmp	 14	 15	 1	 u	 1	 1	 984.01	 6.49	 6.47	 
bmem_snacks_130	 0	 2	 03	 1	 25	 1.090219e+02	 KashitSour.bmp	 BisliGrill.bmp	 50	 43	 0	 u	 2	 0	 930.01	 3.24	 3.80	 
bmem_snacks_130	 0	 2	 03	 1	 26	 1.190332e+02	 Hit.bmp	 ChocolateParaSucariotKoftzot2.bmp	 13	 16	 0	 i	 1	 1	 782.71	 6.96	 6.47	 
bmem_snacks_130	 0	 2	 03	 1	 27	 1.220198e+02	 Taami.bmp	 ChocolateParaMarir2.bmp	 54	 44	 1	 u	 2	 1	 908.13	 2.78	 3.78	 
bmem_snacks_130	 0	 2	 03	 1	 28	 1.270255e+02	 PesekZman.bmp	 Dubonim.bmp	 8	 12	 1	 u	 1	 1	 878.47	 8.02	 6.98	 
bmem_snacks_130	 0	 2	 03	 1	 29	 1.360186e+02	 BabyDoll.bmp	 KinderJoy.bmp	 48	 45	 1	 u	 2	 1	 1045.36	 3.31	 3.76	 
bmem_snacks_130	 0	 2	 03	 1	 30	 1.450289e+02	 Hit.bmp	 PesekZman.bmp	 13	 8	 0	 i	 1	 1	 763.04	 6.96	 8.02	 
bmem_snacks_130	 0	 2	 03	 1	 31	 1.490335e+02	 KashitSour.bmp	 Taami.bmp	 50	 54	 0	 i	 2	 1	 1142.46	 3.24	 2.78	 
bmem_snacks_130	 0	 2	 03	 1	 32	 1.570257e+02	 Dubonim.bmp	 SkittlesSour4.bmp	 12	 17	 0	 i	 1	 1	 862.20	 6.98	 6.44	 
bmem_snacks_130	 0	 2	 03	 1	 33	 1.640335e+02	 ClickXLbrown4.bmp	 Hit.bmp	 14	 13	 1	 u	 1	 1	 718.41	 6.49	 6.96	 
bmem_snacks_130	 0	 2	 03	 1	 34	 1.670203e+02	 SkittlesFruits2.bmp	 CrunchBisquitBrown3.bmp	 18	 9	 0	 i	 1	 1	 787.67	 6.38	 7.40	 
bmem_snacks_130	 0	 2	 03	 1	 35	 1.700236e+02	 Smarties.bmp	 Halva2.bmp	 49	 53	 1	 u	 2	 1	 1088.32	 3.29	 3.18	 
bmem_snacks_130	 0	 2	 03	 1	 36	 1.760304e+02	 KinderJoy.bmp	 Smarties.bmp	 45	 49	 0	 i	 2	 1	 1329.59	 3.76	 3.29	 
bmem_snacks_130	 0	 2	 03	 1	 37	 1.810193e+02	 SkittlesSour4.bmp	 SkittlesFruits2.bmp	 17	 18	 1	 i	 1	 0	 1076.61	 6.44	 6.38	 
bmem_snacks_130	 0	 2	 03	 1	 38	 1.850237e+02	 BagaleShtuhim.bmp	 Twix.bmp	 22	 21	 0	 i	 4	 1	 960.19	 5.87	 5.91	 
bmem_snacks_130	 0	 2	 03	 1	 39	 1.900294e+02	 ChocolateParaSucariotKoftzot2.bmp	 Dubonim.bmp	 16	 12	 1	 u	 1	 1	 842.55	 6.47	 6.98	 
bmem_snacks_130	 0	 2	 03	 1	 40	 1.930327e+02	 ChocolateParaCookies5.bmp	 CrunchBisquitBrown3.bmp	 10	 9	 0	 u	 1	 0	 903.29	 7.02	 7.40	 
bmem_snacks_130	 0	 2	 03	 1	 41	 1.960194e+02	 Keifli.bmp	 KifkefMaklot2.bmp	 19	 20	 0	 i	 4	 1	 1092.59	 5.93	 5.91	 
bmem_snacks_130	 0	 2	 03	 1	 42	 2.040283e+02	 Tapuchips.bmp	 Halva2.bmp	 51	 53	 1	 u	 2	 1	 859.61	 3.24	 3.18	 
bmem_snacks_130	 0	 2	 03	 1	 43	 2.090340e+02	 Smarties.bmp	 ChocolateParaMarir2.bmp	 49	 44	 1	 u	 2	 1	 829.94	 3.29	 3.78	 
bmem_snacks_130	 0	 2	 03	 1	 44	 2.130218e+02	 PesekZman.bmp	 SkittlesFruits2.bmp	 8	 18	 1	 u	 1	 1	 634.17	 8.02	 6.38	 
bmem_snacks_130	 0	 2	 03	 1	 45	 2.160252e+02	 Twist.bmp	 Popco.bmp	 40	 39	 1	 i	 5	 0	 1198.78	 3.82	 4.18	 
bmem_snacks_130	 0	 2	 03	 1	 46	 2.190285e+02	 SkittlesFruits2.bmp	 ChocolateParaSucariotKoftzot2.bmp	 18	 16	 0	 x	 1	 999	 999000.00	 6.38	 6.47	 
bmem_snacks_130	 0	 2	 03	 1	 47	 2.230330e+02	 Kitkat.bmp	 GumiWine2.bmp	 15	 11	 0	 u	 1	 0	 654.97	 6.47	 6.98	 
bmem_snacks_130	 0	 2	 03	 1	 48	 2.260197e+02	 GumiWine2.bmp	 ChocolateParaCookies5.bmp	 11	 10	 1	 i	 1	 0	 644.22	 6.98	 7.02	 
bmem_snacks_130	 0	 2	 03	 1	 49	 2.310252e+02	 Smarties.bmp	 KashitSour.bmp	 49	 50	 1	 u	 2	 1	 566.70	 3.29	 3.24	 
bmem_snacks_130	 0	 2	 03	 1	 50	 2.340286e+02	 ClickXLwhite4.bmp	 Bounty.bmp	 5	 55	 1	 u	 3	 1	 755.36	 8.51	 2.76	 
bmem_snacks_130	 0	 2	 03	 1	 51	 2.370320e+02	 BisliGrill.bmp	 Bamba.bmp	 43	 47	 1	 u	 2	 1	 727.92	 3.80	 3.76	 
bmem_snacks_130	 0	 2	 03	 1	 52	 2.410198e+02	 Halva2.bmp	 Mentos.bmp	 53	 46	 0	 i	 2	 1	 820.16	 3.18	 3.76	 
bmem_snacks_130	 0	 2	 03	 1	 53	 2.440231e+02	 Tapuchips.bmp	 KinderJoy.bmp	 51	 45	 1	 u	 2	 1	 560.84	 3.24	 3.76	 
bmem_snacks_130	 0	 2	 03	 1	 54	 2.470265e+02	 Bamba.bmp	 Tapuchips.bmp	 47	 51	 0	 i	 2	 1	 757.46	 3.76	 3.24	 
bmem_snacks_130	 0	 2	 03	 1	 55	 2.510310e+02	 ChocolateParaMarir2.bmp	 BisliGrill.bmp	 44	 43	 0	 i	 2	 1	 736.90	 3.78	 3.80	 
bmem_snacks_130	 0	 2	 03	 1	 56	 2.640288e+02	 Cheetos.bmp	 Bounty.bmp	 6	 55	 1	 u	 3	 1	 1011.10	 8.07	 2.76	 
bmem_snacks_130	 0	 2	 03	 1	 57	 2.680333e+02	 Bamba.bmp	 Smarties.bmp	 47	 49	 0	 i	 2	 1	 894.63	 3.76	 3.29	 
bmem_snacks_130	 0	 2	 03	 1	 58	 2.720212e+02	 Mentos.bmp	 ChocolateParaMarir2.bmp	 46	 44	 1	 u	 2	 1	 802.71	 3.76	 3.78	 
bmem_snacks_130	 0	 2	 03	 1	 59	 2.760257e+02	 Keifli.bmp	 KifkefMaklot2.bmp	 19	 20	 0	 i	 4	 1	 958.29	 5.93	 5.91	 
bmem_snacks_130	 0	 2	 03	 1	 60	 2.850190e+02	 KinderBuenoWhite2.bmp	 TapuchipsCrunch.bmp	 42	 41	 0	 u	 5	 0	 844.93	 3.80	 3.82	 
bmem_snacks_130	 0	 2	 03	 1	 61	 2.890236e+02	 Mentos.bmp	 Bamba.bmp	 46	 47	 1	 u	 2	 1	 688.35	 3.76	 3.76	 
bmem_snacks_130	 0	 2	 03	 1	 62	 2.920269e+02	 PesekZman.bmp	 Kitkat.bmp	 8	 15	 1	 u	 1	 1	 645.04	 8.02	 6.47	 
bmem_snacks_130	 0	 2	 03	 1	 63	 2.960314e+02	 Kitkat.bmp	 CrunchBisquitBrown3.bmp	 15	 9	 0	 i	 1	 1	 1240.53	 6.47	 7.40	 
bmem_snacks_130	 0	 2	 03	 1	 64	 3.010203e+02	 GumiSnakes3.bmp	 Mentos.bmp	 52	 46	 0	 i	 2	 1	 787.63	 3.22	 3.76	 
bmem_snacks_130	 0	 2	 03	 1	 65	 3.060259e+02	 KinderJoy.bmp	 BisliGrill.bmp	 45	 43	 0	 i	 2	 1	 902.08	 3.76	 3.80	 
bmem_snacks_130	 0	 2	 03	 1	 66	 3.140179e+02	 BabyDoll.bmp	 GumiSnakes3.bmp	 48	 52	 1	 u	 2	 1	 1254.08	 3.31	 3.22	 
bmem_snacks_130	 0	 2	 03	 1	 67	 3.170216e+02	 GumiSnakes3.bmp	 Tapuchips.bmp	 52	 51	 0	 u	 2	 0	 1034.39	 3.22	 3.24	 
bmem_snacks_130	 0	 2	 03	 1	 68	 3.200249e+02	 Tapuchips.bmp	 KashitSour.bmp	 51	 50	 1	 i	 2	 0	 871.05	 3.24	 3.24	 
bmem_snacks_130	 0	 2	 03	 1	 69	 3.280338e+02	 BabyDoll.bmp	 Bamba.bmp	 48	 47	 1	 u	 2	 1	 878.12	 3.31	 3.76	 
bmem_snacks_130	 0	 2	 03	 1	 70	 3.310206e+02	 Tapuchips.bmp	 ChocolateParaMarir2.bmp	 51	 44	 1	 u	 2	 1	 1259.40	 3.24	 3.78	 
bmem_snacks_130	 0	 2	 03	 1	 71	 3.440181e+02	 GumiWine2.bmp	 Dubonim.bmp	 11	 12	 1	 u	 1	 1	 1261.81	 6.98	 6.98	 
bmem_snacks_130	 0	 2	 03	 1	 72	 3.510263e+02	 HappyHippo.bmp	 Cheetos.bmp	 56	 6	 0	 u	 3	 0	 717.65	 2.71	 8.07	 
bmem_snacks_130	 0	 2	 03	 1	 73	 3.560320e+02	 Popco.bmp	 Twist.bmp	 39	 40	 0	 u	 5	 0	 759.99	 4.18	 3.82	 
bmem_snacks_130	 0	 2	 03	 1	 74	 3.600197e+02	 CrunchBisquitBrown3.bmp	 Hit.bmp	 9	 13	 1	 u	 1	 1	 932.27	 7.40	 6.96	 
bmem_snacks_130	 0	 2	 03	 1	 75	 3.640242e+02	 Mentos.bmp	 KinderJoy.bmp	 46	 45	 1	 u	 2	 1	 1071.72	 3.76	 3.76	 
bmem_snacks_130	 0	 2	 03	 1	 76	 3.710321e+02	 KashitSour.bmp	 Mentos.bmp	 50	 46	 0	 i	 2	 1	 831.88	 3.24	 3.76	 
bmem_snacks_130	 0	 2	 03	 1	 77	 3.780232e+02	 GumiSnakes3.bmp	 BisliGrill.bmp	 52	 43	 0	 u	 2	 0	 696.74	 3.22	 3.80	 
bmem_snacks_130	 0	 2	 03	 1	 78	 3.820277e+02	 Halva2.bmp	 BabyDoll.bmp	 53	 48	 0	 i	 2	 1	 924.24	 3.18	 3.31	 
bmem_snacks_130	 0	 2	 03	 1	 79	 3.860321e+02	 ClickXLwhite4.bmp	 HappyHippo.bmp	 5	 56	 1	 u	 3	 1	 671.81	 8.51	 2.71	 
bmem_snacks_130	 0	 2	 03	 1	 80	 3.950255e+02	 SkittlesSour4.bmp	 ChocolateParaCookies5.bmp	 17	 10	 1	 i	 1	 0	 750.42	 6.44	 7.02	 
bmem_snacks_130	 0	 2	 03	 1	 81	 3.990301e+02	 KinderJoy.bmp	 Taami.bmp	 45	 54	 0	 i	 2	 1	 689.89	 3.76	 2.78	 
bmem_snacks_130	 0	 2	 03	 1	 82	 4.090245e+02	 Kitkat.bmp	 ChocolateParaSucariotKoftzot2.bmp	 15	 16	 0	 i	 1	 1	 855.42	 6.47	 6.47	 
bmem_snacks_130	 0	 2	 03	 1	 83	 4.130290e+02	 Dubonim.bmp	 CrunchBisquitBrown3.bmp	 12	 9	 0	 i	 1	 1	 746.91	 6.98	 7.40	 
bmem_snacks_130	 0	 2	 03	 1	 84	 4.180176e+02	 GumiSnakes3.bmp	 Taami.bmp	 52	 54	 0	 i	 2	 1	 782.31	 3.22	 2.78	 
