subjectID	scanner	order	block	run	trial	onsettime	ImageLeft	ImageRight	bidIndexLeft	bidIndexRight	IsleftGo	Response	PairType	Outcome	RT	bidLeft	bidRight	
bmem_snacks_127	 0	 1	 03	 1	 1	 2.018704e+00	 Smarties.bmp	 BagaleShtuhim.bmp	 48	 47	 0	 i	 2	 1	 1130.10	 0.71	 0.89	 
bmem_snacks_127	 0	 1	 03	 1	 2	 5.005133e+00	 ClickXLbrown4.bmp	 KinderBuenoWhite2.bmp	 10	 8	 1	 i	 1	 0	 647.66	 6.73	 6.96	 
bmem_snacks_127	 0	 1	 03	 1	 3	 1.001099e+01	 ChocolateParaSucariotKoftzot2.bmp	 BabyDoll.bmp	 43	 52	 0	 u	 2	 0	 721.82	 1.44	 0.29	 
bmem_snacks_127	 0	 1	 03	 1	 4	 1.301444e+01	 ChocolateParaMilk3.bmp	 Twix.bmp	 19	 20	 1	 u	 4	 1	 886.36	 4.31	 3.98	 
bmem_snacks_127	 0	 1	 03	 1	 5	 1.601741e+01	 ClickXLwhite4.bmp	 KinderBuenoWhite2.bmp	 12	 8	 1	 i	 1	 0	 747.40	 6.11	 6.96	 
bmem_snacks_127	 0	 1	 03	 1	 6	 2.100674e+01	 Bounty.bmp	 ChocolateParaMarir2.bmp	 45	 51	 1	 i	 2	 0	 1014.07	 1.11	 0.33	 
bmem_snacks_127	 0	 1	 03	 1	 7	 2.501119e+01	 BisliPizza3.bmp	 Smarties.bmp	 50	 48	 1	 i	 2	 0	 985.62	 0.42	 0.71	 
bmem_snacks_127	 0	 1	 03	 1	 8	 3.001682e+01	 BisliOnion.bmp	 BagaleShtuhim.bmp	 54	 47	 0	 u	 2	 0	 1027.98	 0.22	 0.89	 
bmem_snacks_127	 0	 1	 03	 1	 9	 3.600685e+01	 Kitkat.bmp	 Tictac.bmp	 5	 56	 1	 u	 3	 1	 797.95	 7.22	 0.16	 
bmem_snacks_127	 0	 1	 03	 1	 10	 4.101245e+01	 KinderJoy.bmp	 KinderBuenoWhite2.bmp	 13	 8	 1	 i	 1	 0	 1120.36	 6.00	 6.96	 
bmem_snacks_127	 0	 1	 03	 1	 11	 4.900444e+01	 ClickBlackWhite3.bmp	 KinderJoy.bmp	 16	 13	 0	 u	 1	 0	 952.36	 5.89	 6.00	 
bmem_snacks_127	 0	 1	 03	 1	 12	 5.300921e+01	 Popco.bmp	 WerthersOriginal.bmp	 44	 49	 1	 u	 2	 1	 819.62	 1.24	 0.58	 
bmem_snacks_127	 0	 1	 03	 1	 13	 5.701373e+01	 ClickXLwhite4.bmp	 Mentos.bmp	 12	 11	 1	 u	 1	 1	 687.07	 6.11	 6.31	 
bmem_snacks_127	 0	 1	 03	 1	 14	 6.400466e+01	 Tortit.bmp	 Egozi.bmp	 21	 22	 0	 u	 4	 0	 1120.15	 3.93	 3.89	 
bmem_snacks_127	 0	 1	 03	 1	 15	 6.700833e+01	 TapuchipsCrunch.bmp	 SkittlesFruits2.bmp	 40	 39	 0	 u	 5	 0	 772.49	 1.73	 2.11	 
bmem_snacks_127	 0	 1	 03	 1	 16	 7.001171e+01	 Smarties.bmp	 Bounty.bmp	 48	 45	 0	 u	 2	 0	 769.10	 0.71	 1.11	 
bmem_snacks_127	 0	 1	 03	 1	 17	 8.100735e+01	 Tortit.bmp	 Egozi.bmp	 21	 22	 0	 u	 4	 0	 701.46	 3.93	 3.89	 
bmem_snacks_127	 0	 1	 03	 1	 18	 9.302081e+01	 ClickXLbrown4.bmp	 ClickBlackWhite3.bmp	 10	 16	 1	 u	 1	 1	 1271.99	 6.73	 5.89	 
bmem_snacks_127	 0	 1	 03	 1	 19	 9.800980e+01	 ChocolateParaSucariotKoftzot2.bmp	 BisliPizza3.bmp	 43	 50	 0	 u	 2	 0	 683.04	 1.44	 0.42	 
bmem_snacks_127	 0	 1	 03	 1	 20	 1.010131e+02	 DoritosNatural.bmp	 ClickBlackWhite3.bmp	 15	 16	 1	 u	 1	 1	 895.74	 5.91	 5.89	 
bmem_snacks_127	 0	 1	 03	 1	 21	 1.080207e+02	 KashitSour.bmp	 Kitkat.bmp	 55	 5	 0	 i	 3	 1	 648.12	 0.20	 7.22	 
bmem_snacks_127	 0	 1	 03	 1	 22	 1.130099e+02	 ChocolateParaCookies5.bmp	 Tapuchips.bmp	 9	 18	 0	 u	 1	 0	 698.90	 6.87	 4.42	 
bmem_snacks_127	 0	 1	 03	 1	 23	 1.160133e+02	 DoritosGrill.bmp	 ChocolateParaMarir2.bmp	 53	 51	 1	 i	 2	 0	 727.55	 0.22	 0.33	 
bmem_snacks_127	 0	 1	 03	 1	 24	 1.230042e+02	 ClickBalls5.bmp	 KinderJoy.bmp	 14	 13	 0	 u	 1	 0	 672.56	 5.96	 6.00	 
bmem_snacks_127	 0	 1	 03	 1	 25	 1.270089e+02	 KinderBuenoBrown3.bmp	 ClickBalls5.bmp	 7	 14	 1	 u	 1	 1	 579.88	 6.96	 5.96	 
bmem_snacks_127	 0	 1	 03	 1	 26	 1.300123e+02	 ClickBalls5.bmp	 DoritosNatural.bmp	 14	 15	 0	 u	 1	 0	 920.53	 5.96	 5.91	 
bmem_snacks_127	 0	 1	 03	 1	 27	 1.340168e+02	 BisliGrill.bmp	 KinderJoy.bmp	 17	 13	 0	 u	 1	 0	 755.98	 5.38	 6.00	 
bmem_snacks_127	 0	 1	 03	 1	 28	 1.400068e+02	 Shugi.bmp	 DoritosGrill.bmp	 46	 53	 0	 u	 2	 0	 933.97	 0.93	 0.22	 
bmem_snacks_127	 0	 1	 03	 1	 29	 1.430099e+02	 ChocolateParaCookies5.bmp	 KinderBuenoBrown3.bmp	 9	 7	 0	 i	 1	 1	 682.92	 6.87	 6.96	 
bmem_snacks_127	 0	 1	 03	 1	 30	 1.500181e+02	 BisliOnion.bmp	 BabyDoll.bmp	 54	 52	 0	 u	 2	 0	 674.75	 0.22	 0.29	 
bmem_snacks_127	 0	 1	 03	 1	 31	 1.640171e+02	 SkittlesFruits2.bmp	 TapuchipsCrunch.bmp	 39	 40	 1	 i	 5	 0	 1035.68	 2.11	 1.73	 
bmem_snacks_127	 0	 1	 03	 1	 32	 1.680046e+02	 Tapuchips.bmp	 Mentos.bmp	 18	 11	 1	 u	 1	 1	 856.20	 4.42	 6.31	 
bmem_snacks_127	 0	 1	 03	 1	 33	 1.810195e+02	 Smarties.bmp	 BabyDoll.bmp	 48	 52	 0	 u	 2	 0	 777.35	 0.71	 0.29	 
bmem_snacks_127	 0	 1	 03	 1	 34	 1.870096e+02	 Bounty.bmp	 ChocolateParaSucariotKoftzot2.bmp	 45	 43	 1	 i	 2	 0	 587.18	 1.11	 1.44	 
bmem_snacks_127	 0	 1	 03	 1	 35	 1.900129e+02	 Shugi.bmp	 BagaleShtuhim.bmp	 46	 47	 0	 i	 2	 1	 863.86	 0.93	 0.89	 
bmem_snacks_127	 0	 1	 03	 1	 36	 1.950186e+02	 Bamba.bmp	 Halva2.bmp	 41	 42	 0	 u	 5	 0	 858.23	 1.67	 1.60	 
bmem_snacks_127	 0	 1	 03	 1	 37	 1.980049e+02	 BagaleShtuhim.bmp	 WerthersOriginal.bmp	 47	 49	 1	 u	 2	 1	 687.89	 0.89	 0.58	 
bmem_snacks_127	 0	 1	 03	 1	 38	 2.030108e+02	 BisliGrill.bmp	 ClickXLwhite4.bmp	 17	 12	 0	 i	 1	 1	 673.98	 5.38	 6.11	 
bmem_snacks_127	 0	 1	 03	 1	 39	 2.120209e+02	 Smarties.bmp	 Popco.bmp	 48	 44	 0	 i	 2	 1	 663.90	 0.71	 1.24	 
bmem_snacks_127	 0	 1	 03	 1	 40	 2.160088e+02	 WerthersOriginal.bmp	 Bounty.bmp	 49	 45	 0	 u	 2	 0	 916.04	 0.58	 1.11	 
bmem_snacks_127	 0	 1	 03	 1	 41	 2.220155e+02	 ClickBlackWhite3.bmp	 KinderBuenoBrown3.bmp	 16	 7	 0	 i	 1	 1	 621.35	 5.89	 6.96	 
bmem_snacks_127	 0	 1	 03	 1	 42	 2.250189e+02	 DoritosNatural.bmp	 Mentos.bmp	 15	 11	 1	 u	 1	 1	 761.92	 5.91	 6.31	 
bmem_snacks_127	 0	 1	 03	 1	 43	 2.310089e+02	 Bounty.bmp	 BisliOnion.bmp	 45	 54	 1	 i	 2	 0	 659.91	 1.11	 0.22	 
bmem_snacks_127	 0	 1	 03	 1	 44	 2.350134e+02	 ChocolateParaSucariotKoftzot2.bmp	 DoritosGrill.bmp	 43	 53	 0	 u	 2	 0	 751.38	 1.44	 0.22	 
bmem_snacks_127	 0	 1	 03	 1	 45	 2.410201e+02	 Halva2.bmp	 Bamba.bmp	 42	 41	 1	 i	 5	 0	 688.72	 1.60	 1.67	 
bmem_snacks_127	 0	 1	 03	 1	 46	 2.440069e+02	 Twix.bmp	 ChocolateParaMilk3.bmp	 20	 19	 0	 i	 4	 1	 597.96	 3.98	 4.31	 
bmem_snacks_127	 0	 1	 03	 1	 47	 2.470101e+02	 ChocolateParaSucariotKoftzot2.bmp	 Popco.bmp	 43	 44	 0	 u	 2	 0	 682.68	 1.44	 1.24	 
bmem_snacks_127	 0	 1	 03	 1	 48	 2.510146e+02	 PesekZman.bmp	 Tictac.bmp	 6	 56	 1	 u	 3	 1	 654.17	 7.13	 0.16	 
bmem_snacks_127	 0	 1	 03	 1	 49	 2.590070e+02	 WerthersOriginal.bmp	 BabyDoll.bmp	 49	 52	 0	 i	 2	 1	 989.85	 0.58	 0.29	 
bmem_snacks_127	 0	 1	 03	 1	 50	 2.630114e+02	 ChocolateParaCookies5.bmp	 KinderJoy.bmp	 9	 13	 0	 i	 1	 1	 745.37	 6.87	 6.00	 
bmem_snacks_127	 0	 1	 03	 1	 51	 2.660149e+02	 KinderJoy.bmp	 Mentos.bmp	 13	 11	 1	 i	 1	 0	 901.96	 6.00	 6.31	 
bmem_snacks_127	 0	 1	 03	 1	 52	 2.690182e+02	 DoritosGrill.bmp	 WerthersOriginal.bmp	 53	 49	 1	 i	 2	 0	 882.64	 0.22	 0.58	 
bmem_snacks_127	 0	 1	 03	 1	 53	 2.750082e+02	 BisliGrill.bmp	 KinderBuenoBrown3.bmp	 17	 7	 0	 i	 1	 1	 572.63	 5.38	 6.96	 
bmem_snacks_127	 0	 1	 03	 1	 54	 2.790127e+02	 DoritosNatural.bmp	 ChocolateParaCookies5.bmp	 15	 9	 1	 i	 1	 0	 728.10	 5.91	 6.87	 
bmem_snacks_127	 0	 1	 03	 1	 55	 2.820161e+02	 DoritosGrill.bmp	 BisliOnion.bmp	 53	 54	 1	 i	 2	 0	 692.75	 0.22	 0.22	 
bmem_snacks_127	 0	 1	 03	 1	 56	 2.870048e+02	 BagaleShtuhim.bmp	 ChocolateParaSucariotKoftzot2.bmp	 47	 43	 1	 i	 2	 0	 696.01	 0.89	 1.44	 
bmem_snacks_127	 0	 1	 03	 1	 57	 2.910096e+02	 KinderBuenoBrown3.bmp	 KinderBuenoWhite2.bmp	 7	 8	 1	 i	 1	 0	 851.26	 6.96	 6.96	 
bmem_snacks_127	 0	 1	 03	 1	 58	 3.000197e+02	 ClickBalls5.bmp	 ClickXLbrown4.bmp	 14	 10	 0	 i	 1	 1	 609.14	 5.96	 6.73	 
bmem_snacks_127	 0	 1	 03	 1	 59	 3.050085e+02	 Popco.bmp	 ChocolateParaMarir2.bmp	 44	 51	 1	 i	 2	 0	 660.28	 1.24	 0.33	 
bmem_snacks_127	 0	 1	 03	 1	 60	 3.080119e+02	 ChocolateParaMarir2.bmp	 BisliPizza3.bmp	 51	 50	 0	 u	 2	 0	 1024.88	 0.33	 0.42	 
bmem_snacks_127	 0	 1	 03	 1	 61	 3.130175e+02	 BabyDoll.bmp	 ChocolateParaMarir2.bmp	 52	 51	 1	 i	 2	 0	 683.27	 0.29	 0.33	 
bmem_snacks_127	 0	 1	 03	 1	 62	 3.210098e+02	 Shugi.bmp	 Popco.bmp	 46	 44	 0	 u	 2	 0	 827.02	 0.93	 1.24	 
bmem_snacks_127	 0	 1	 03	 1	 63	 3.240132e+02	 ClickXLwhite4.bmp	 ChocolateParaCookies5.bmp	 12	 9	 1	 u	 1	 1	 703.57	 6.11	 6.87	 
bmem_snacks_127	 0	 1	 03	 1	 64	 3.270165e+02	 ClickBlackWhite3.bmp	 ClickXLwhite4.bmp	 16	 12	 0	 i	 1	 1	 700.27	 5.89	 6.11	 
bmem_snacks_127	 0	 1	 03	 1	 65	 3.300199e+02	 BagaleShtuhim.bmp	 ChocolateParaMarir2.bmp	 47	 51	 1	 i	 2	 0	 664.88	 0.89	 0.33	 
bmem_snacks_127	 0	 1	 03	 1	 66	 3.350089e+02	 ClickXLbrown4.bmp	 BisliGrill.bmp	 10	 17	 1	 u	 1	 1	 659.92	 6.73	 5.38	 
bmem_snacks_127	 0	 1	 03	 1	 67	 3.400144e+02	 Shugi.bmp	 Bounty.bmp	 46	 45	 0	 u	 2	 0	 1038.39	 0.93	 1.11	 
bmem_snacks_127	 0	 1	 03	 1	 68	 3.430178e+02	 ClickXLbrown4.bmp	 ChocolateParaCookies5.bmp	 10	 9	 1	 i	 1	 0	 939.04	 6.73	 6.87	 
bmem_snacks_127	 0	 1	 03	 1	 69	 3.490079e+02	 DoritosGrill.bmp	 Smarties.bmp	 53	 48	 1	 u	 2	 1	 764.91	 0.22	 0.71	 
bmem_snacks_127	 0	 1	 03	 1	 70	 3.530124e+02	 Shugi.bmp	 BabyDoll.bmp	 46	 52	 0	 u	 2	 0	 648.45	 0.93	 0.29	 
bmem_snacks_127	 0	 1	 03	 1	 71	 3.560157e+02	 Tapuchips.bmp	 ClickBlackWhite3.bmp	 18	 16	 1	 u	 1	 1	 741.08	 4.42	 5.89	 
bmem_snacks_127	 0	 1	 03	 1	 72	 3.670114e+02	 Popco.bmp	 BisliOnion.bmp	 44	 54	 1	 i	 2	 0	 689.40	 1.24	 0.22	 
bmem_snacks_127	 0	 1	 03	 1	 73	 3.730182e+02	 KinderBuenoWhite2.bmp	 DoritosNatural.bmp	 8	 15	 0	 u	 1	 0	 746.61	 6.96	 5.91	 
bmem_snacks_127	 0	 1	 03	 1	 74	 3.780070e+02	 Shugi.bmp	 BisliPizza3.bmp	 46	 50	 0	 i	 2	 1	 829.79	 0.93	 0.42	 
bmem_snacks_127	 0	 1	 03	 1	 75	 3.810104e+02	 PesekZman.bmp	 KashitSour.bmp	 6	 55	 1	 u	 3	 1	 642.41	 7.13	 0.20	 
bmem_snacks_127	 0	 1	 03	 1	 76	 3.850149e+02	 Tapuchips.bmp	 KinderBuenoWhite2.bmp	 18	 8	 1	 i	 1	 0	 637.94	 4.42	 6.96	 
bmem_snacks_127	 0	 1	 03	 1	 77	 3.910047e+02	 BisliPizza3.bmp	 BisliOnion.bmp	 50	 54	 1	 i	 2	 0	 640.15	 0.42	 0.22	 
bmem_snacks_127	 0	 1	 03	 1	 78	 3.950094e+02	 ClickBalls5.bmp	 Tapuchips.bmp	 14	 18	 0	 u	 1	 0	 659.37	 5.96	 4.42	 
bmem_snacks_127	 0	 1	 03	 1	 79	 3.980128e+02	 ClickXLbrown4.bmp	 Mentos.bmp	 10	 11	 1	 u	 1	 1	 639.97	 6.73	 6.31	 
bmem_snacks_127	 0	 1	 03	 1	 80	 4.010162e+02	 Tapuchips.bmp	 BisliGrill.bmp	 18	 17	 1	 i	 1	 0	 684.58	 4.42	 5.38	 
bmem_snacks_127	 0	 1	 03	 1	 81	 4.050206e+02	 BisliGrill.bmp	 DoritosNatural.bmp	 17	 15	 0	 i	 1	 1	 616.15	 5.38	 5.91	 
bmem_snacks_127	 0	 1	 03	 1	 82	 4.110106e+02	 ClickXLwhite4.bmp	 ClickBalls5.bmp	 12	 14	 1	 u	 1	 1	 770.16	 6.11	 5.96	 
bmem_snacks_127	 0	 1	 03	 1	 83	 4.140141e+02	 WerthersOriginal.bmp	 BisliPizza3.bmp	 49	 50	 0	 i	 2	 1	 670.71	 0.58	 0.42	 
bmem_snacks_127	 0	 1	 03	 1	 84	 4.180186e+02	 Mentos.bmp	 KinderBuenoBrown3.bmp	 11	 7	 0	 i	 1	 1	 546.17	 6.31	 6.96	 
