subjectID	scanner	order	block	run	trial	onsettime	ImageLeft	ImageRight	bidIndexLeft	bidIndexRight	IsleftGo	Response	PairType	Outcome	RT	bidLeft	bidRight	
bmem_snacks_121	 0	 1	 01	 1	 1	 2.018854e+00	 DoritosSourSpicy.bmp	 Twist.bmp	 46	 52	 0	 i	 2	 1	 858.67	 0.47	 0.40	 
bmem_snacks_121	 0	 1	 01	 1	 2	 7.024462e+00	 Twist.bmp	 DoritosGrill.bmp	 52	 48	 1	 u	 2	 1	 781.06	 0.40	 0.44	 
bmem_snacks_121	 0	 1	 01	 1	 3	 1.701892e+01	 ChocolateParaCookies5.bmp	 ClickXLwhite4.bmp	 13	 14	 1	 u	 1	 1	 730.64	 4.82	 4.82	 
bmem_snacks_121	 0	 1	 01	 1	 4	 2.102346e+01	 DoritosGrill.bmp	 DoritosNatural.bmp	 48	 44	 0	 x	 2	 999	 999000.00	 0.44	 0.53	 
bmem_snacks_121	 0	 1	 01	 1	 5	 2.601251e+01	 Twix.bmp	 ClickBlackWhite3.bmp	 18	 8	 1	 i	 1	 0	 641.02	 3.62	 4.98	 
bmem_snacks_121	 0	 1	 01	 1	 6	 3.201913e+01	 BisliPizza3.bmp	 ClickBalls5.bmp	 53	 54	 1	 i	 2	 0	 962.43	 0.40	 0.40	 
bmem_snacks_121	 0	 1	 01	 1	 7	 3.702478e+01	 TapuchipsCrunch.bmp	 KashitSour.bmp	 47	 43	 1	 i	 2	 0	 932.74	 0.47	 0.53	 
bmem_snacks_121	 0	 1	 01	 1	 8	 4.001142e+01	 TapuchipsCrunch.bmp	 ClickBalls5.bmp	 47	 54	 1	 i	 2	 0	 610.09	 0.47	 0.40	 
bmem_snacks_121	 0	 1	 01	 1	 9	 4.301478e+01	 TapuchipsCrunch.bmp	 BagaleShtuhim.bmp	 47	 49	 1	 x	 2	 999	 999000.00	 0.47	 0.44	 
bmem_snacks_121	 0	 1	 01	 1	 10	 4.601815e+01	 BisliPizza3.bmp	 DoritosGrill.bmp	 53	 48	 1	 x	 2	 999	 999000.00	 0.40	 0.44	 
bmem_snacks_121	 0	 1	 01	 1	 11	 4.902151e+01	 Taami.bmp	 ChocolateParaMilk3.bmp	 19	 20	 1	 i	 4	 0	 720.01	 3.51	 3.13	 
bmem_snacks_121	 0	 1	 01	 1	 12	 5.601270e+01	 Mekupelet.bmp	 Hit.bmp	 10	 9	 1	 i	 1	 0	 960.84	 4.91	 4.91	 
bmem_snacks_121	 0	 1	 01	 1	 13	 5.901603e+01	 ChocolateParaMilk3.bmp	 Taami.bmp	 20	 19	 0	 i	 4	 1	 749.49	 3.13	 3.51	 
bmem_snacks_121	 0	 1	 01	 1	 14	 6.201947e+01	 BisliPizza3.bmp	 BagaleShtuhim.bmp	 53	 49	 1	 x	 2	 999	 999000.00	 0.40	 0.44	 
bmem_snacks_121	 0	 1	 01	 1	 15	 6.702510e+01	 DoritosNatural.bmp	 Smarties.bmp	 44	 51	 1	 i	 2	 0	 1124.42	 0.53	 0.42	 
bmem_snacks_121	 0	 1	 01	 1	 16	 7.301512e+01	 BagaleShtuhim.bmp	 DoritosNatural.bmp	 49	 44	 0	 x	 2	 999	 999000.00	 0.44	 0.53	 
bmem_snacks_121	 0	 1	 01	 1	 17	 7.802071e+01	 PesekZman.bmp	 Tictac.bmp	 41	 42	 0	 u	 5	 0	 872.80	 0.56	 0.53	 
bmem_snacks_121	 0	 1	 01	 1	 18	 8.302629e+01	 DoritosSourSpicy.bmp	 Cheetos.bmp	 46	 45	 0	 i	 2	 1	 1155.28	 0.47	 0.49	 
bmem_snacks_121	 0	 1	 01	 1	 19	 9.201972e+01	 Apropo.bmp	 ClickBalls5.bmp	 50	 54	 1	 i	 2	 0	 857.81	 0.44	 0.40	 
bmem_snacks_121	 0	 1	 01	 1	 20	 9.702531e+01	 Apropo.bmp	 DoritosGrill.bmp	 50	 48	 1	 x	 2	 999	 999000.00	 0.44	 0.44	 
bmem_snacks_121	 0	 1	 01	 1	 21	 1.030154e+02	 Halva2.bmp	 ClickXLwhite4.bmp	 7	 14	 1	 i	 1	 0	 854.11	 5.18	 4.82	 
bmem_snacks_121	 0	 1	 01	 1	 22	 1.060188e+02	 DoritosSourSpicy.bmp	 BisliPizza3.bmp	 46	 53	 0	 x	 2	 999	 999000.00	 0.47	 0.40	 
bmem_snacks_121	 0	 1	 01	 1	 23	 1.190167e+02	 PesekZman.bmp	 Tictac.bmp	 41	 42	 0	 u	 5	 0	 796.86	 0.56	 0.53	 
bmem_snacks_121	 0	 1	 01	 1	 24	 1.230213e+02	 Cheetos.bmp	 BagaleShtuhim.bmp	 45	 49	 1	 x	 2	 999	 999000.00	 0.49	 0.44	 
bmem_snacks_121	 0	 1	 01	 1	 25	 1.290110e+02	 CrunchBisquitBrown3.bmp	 ChocolateParaCookies5.bmp	 16	 13	 0	 i	 1	 1	 978.57	 3.73	 4.82	 
bmem_snacks_121	 0	 1	 01	 1	 26	 1.360191e+02	 Cheetos.bmp	 DoritosGrill.bmp	 45	 48	 1	 x	 2	 999	 999000.00	 0.49	 0.44	 
bmem_snacks_121	 0	 1	 01	 1	 27	 1.410247e+02	 ClickBalls5.bmp	 Twist.bmp	 54	 52	 0	 i	 2	 1	 660.81	 0.40	 0.40	 
bmem_snacks_121	 0	 1	 01	 1	 28	 1.440110e+02	 SkittlesFruits2.bmp	 BisliOnion.bmp	 40	 39	 0	 u	 5	 0	 1010.48	 0.56	 0.56	 
bmem_snacks_121	 0	 1	 01	 1	 29	 1.470148e+02	 WerthersOriginal.bmp	 HappyHippo.bmp	 56	 5	 0	 i	 3	 1	 846.75	 0.36	 5.89	 
bmem_snacks_121	 0	 1	 01	 1	 30	 1.500181e+02	 Hit.bmp	 ChocolateParaCookies5.bmp	 9	 13	 0	 i	 1	 1	 1075.46	 4.91	 4.82	 
bmem_snacks_121	 0	 1	 01	 1	 31	 1.530214e+02	 Bounty.bmp	 Halva2.bmp	 11	 7	 0	 i	 1	 1	 936.11	 4.84	 5.18	 
bmem_snacks_121	 0	 1	 01	 1	 32	 1.570259e+02	 KashitSour.bmp	 Twist.bmp	 43	 52	 0	 i	 2	 1	 675.60	 0.53	 0.40	 
bmem_snacks_121	 0	 1	 01	 1	 33	 1.600126e+02	 Smarties.bmp	 Twist.bmp	 51	 52	 0	 i	 2	 1	 688.98	 0.42	 0.40	 
bmem_snacks_121	 0	 1	 01	 1	 34	 1.690227e+02	 ClickBalls5.bmp	 Cheetos.bmp	 54	 45	 0	 u	 2	 0	 926.83	 0.40	 0.49	 
bmem_snacks_121	 0	 1	 01	 1	 35	 1.730272e+02	 Mekupelet.bmp	 ClickXLbrown4.bmp	 10	 17	 1	 u	 1	 1	 866.33	 4.91	 3.71	 
bmem_snacks_121	 0	 1	 01	 1	 36	 1.760139e+02	 SkittlesFruits2.bmp	 BisliOnion.bmp	 40	 39	 0	 u	 5	 0	 927.60	 0.56	 0.56	 
bmem_snacks_121	 0	 1	 01	 1	 37	 1.880273e+02	 Hit.bmp	 CrunchBisquitWhite2.bmp	 9	 12	 0	 u	 1	 0	 1370.22	 4.91	 4.84	 
bmem_snacks_121	 0	 1	 01	 1	 38	 1.920152e+02	 Apropo.bmp	 BagaleShtuhim.bmp	 50	 49	 1	 x	 2	 999	 999000.00	 0.44	 0.44	 
bmem_snacks_121	 0	 1	 01	 1	 39	 1.950185e+02	 DoritosSourSpicy.bmp	 Apropo.bmp	 46	 50	 0	 x	 2	 999	 999000.00	 0.47	 0.44	 
bmem_snacks_121	 0	 1	 01	 1	 40	 1.990230e+02	 CrunchShokoVanil.bmp	 ClickXLwhite4.bmp	 15	 14	 1	 i	 1	 0	 734.50	 4.80	 4.82	 
bmem_snacks_121	 0	 1	 01	 1	 41	 2.030274e+02	 Smarties.bmp	 Cheetos.bmp	 51	 45	 0	 u	 2	 0	 970.07	 0.42	 0.49	 
bmem_snacks_121	 0	 1	 01	 1	 42	 2.080164e+02	 ClickXLbrown4.bmp	 ChocolateParaCookies5.bmp	 17	 13	 0	 i	 1	 1	 701.16	 3.71	 4.82	 
bmem_snacks_121	 0	 1	 01	 1	 43	 2.160254e+02	 DoritosNatural.bmp	 KashitSour.bmp	 44	 43	 1	 i	 2	 0	 900.12	 0.53	 0.53	 
bmem_snacks_121	 0	 1	 01	 1	 44	 2.200133e+02	 ChocolateParaMarir2.bmp	 Egozi.bmp	 22	 21	 1	 i	 4	 0	 1048.21	 2.84	 2.84	 
bmem_snacks_121	 0	 1	 01	 1	 45	 2.240177e+02	 ClickXLwhite4.bmp	 CrunchBisquitWhite2.bmp	 14	 12	 0	 u	 1	 0	 1019.83	 4.82	 4.84	 
bmem_snacks_121	 0	 1	 01	 1	 46	 2.380167e+02	 CrunchBisquitBrown3.bmp	 CrunchShokoVanil.bmp	 16	 15	 0	 i	 1	 1	 852.79	 3.73	 4.80	 
bmem_snacks_121	 0	 1	 01	 1	 47	 2.410201e+02	 CrunchShokoVanil.bmp	 Hit.bmp	 15	 9	 1	 i	 1	 0	 849.47	 4.80	 4.91	 
bmem_snacks_121	 0	 1	 01	 1	 48	 2.450245e+02	 Bounty.bmp	 CrunchBisquitWhite2.bmp	 11	 12	 0	 i	 1	 1	 845.02	 4.84	 4.84	 
bmem_snacks_121	 0	 1	 01	 1	 49	 2.490121e+02	 Twix.bmp	 CrunchBisquitBrown3.bmp	 18	 16	 1	 u	 1	 1	 1161.43	 3.62	 3.73	 
bmem_snacks_121	 0	 1	 01	 1	 50	 2.550192e+02	 Halva2.bmp	 Hit.bmp	 7	 9	 1	 i	 1	 0	 1026.40	 5.18	 4.91	 
bmem_snacks_121	 0	 1	 01	 1	 51	 2.580225e+02	 Mekupelet.bmp	 ClickBlackWhite3.bmp	 10	 8	 1	 i	 1	 0	 1143.04	 4.91	 4.98	 
bmem_snacks_121	 0	 1	 01	 1	 52	 2.610258e+02	 ClickBalls5.bmp	 DoritosNatural.bmp	 54	 44	 0	 u	 2	 0	 739.72	 0.40	 0.53	 
bmem_snacks_121	 0	 1	 01	 1	 53	 2.660148e+02	 DoritosSourSpicy.bmp	 DoritosNatural.bmp	 46	 44	 0	 x	 2	 999	 999000.00	 0.47	 0.53	 
bmem_snacks_121	 0	 1	 01	 1	 54	 2.760259e+02	 CrunchShokoVanil.bmp	 Bounty.bmp	 15	 11	 1	 i	 1	 0	 1067.58	 4.80	 4.84	 
bmem_snacks_121	 0	 1	 01	 1	 55	 2.790127e+02	 CrunchBisquitBrown3.bmp	 Mekupelet.bmp	 16	 10	 0	 u	 1	 0	 1016.81	 3.73	 4.91	 
bmem_snacks_121	 0	 1	 01	 1	 56	 2.820161e+02	 CrunchBisquitBrown3.bmp	 CrunchBisquitWhite2.bmp	 16	 12	 0	 i	 1	 1	 709.46	 3.73	 4.84	 
bmem_snacks_121	 0	 1	 01	 1	 57	 2.870217e+02	 CrunchBisquitWhite2.bmp	 ClickBlackWhite3.bmp	 12	 8	 1	 u	 1	 1	 631.85	 4.84	 4.98	 
bmem_snacks_121	 0	 1	 01	 1	 58	 2.900250e+02	 TapuchipsCrunch.bmp	 DoritosGrill.bmp	 47	 48	 1	 x	 2	 999	 999000.00	 0.47	 0.44	 
bmem_snacks_121	 0	 1	 01	 1	 59	 2.960150e+02	 Twist.bmp	 BagaleShtuhim.bmp	 52	 49	 1	 u	 2	 1	 1182.48	 0.40	 0.44	 
bmem_snacks_121	 0	 1	 01	 1	 60	 2.990184e+02	 WerthersOriginal.bmp	 KinderJoy.bmp	 56	 6	 0	 i	 3	 1	 763.09	 0.36	 5.84	 
bmem_snacks_121	 0	 1	 01	 1	 61	 3.040240e+02	 Bounty.bmp	 ChocolateParaCookies5.bmp	 11	 13	 0	 i	 1	 1	 749.54	 4.84	 4.82	 
bmem_snacks_121	 0	 1	 01	 1	 62	 3.070104e+02	 Smarties.bmp	 TapuchipsCrunch.bmp	 51	 47	 0	 u	 2	 0	 1067.17	 0.42	 0.47	 
bmem_snacks_121	 0	 1	 01	 1	 63	 3.150197e+02	 Mekupelet.bmp	 ClickXLwhite4.bmp	 10	 14	 1	 i	 1	 0	 625.87	 4.91	 4.82	 
bmem_snacks_121	 0	 1	 01	 1	 64	 3.190242e+02	 DoritosSourSpicy.bmp	 TapuchipsCrunch.bmp	 46	 47	 0	 x	 2	 999	 999000.00	 0.47	 0.47	 
bmem_snacks_121	 0	 1	 01	 1	 65	 3.230117e+02	 ClickXLwhite4.bmp	 Twix.bmp	 14	 18	 0	 u	 1	 0	 681.84	 4.82	 3.62	 
bmem_snacks_121	 0	 1	 01	 1	 66	 3.280176e+02	 HappyHippo.bmp	 BabyDoll.bmp	 5	 55	 1	 u	 3	 1	 1067.94	 5.89	 0.40	 
bmem_snacks_121	 0	 1	 01	 1	 67	 3.320220e+02	 KashitSour.bmp	 Cheetos.bmp	 43	 45	 0	 u	 2	 0	 935.48	 0.53	 0.49	 
bmem_snacks_121	 0	 1	 01	 1	 68	 3.370107e+02	 ClickXLbrown4.bmp	 CrunchShokoVanil.bmp	 17	 15	 0	 i	 1	 1	 1218.84	 3.71	 4.80	 
bmem_snacks_121	 0	 1	 01	 1	 69	 3.450200e+02	 KinderJoy.bmp	 BabyDoll.bmp	 6	 55	 1	 u	 3	 1	 561.54	 5.84	 0.40	 
bmem_snacks_121	 0	 1	 01	 1	 70	 3.480234e+02	 Twix.bmp	 ClickXLbrown4.bmp	 18	 17	 1	 u	 1	 1	 878.13	 3.62	 3.71	 
bmem_snacks_121	 0	 1	 01	 1	 71	 3.510267e+02	 Mekupelet.bmp	 Bounty.bmp	 10	 11	 1	 u	 1	 1	 970.86	 4.91	 4.84	 
bmem_snacks_121	 0	 1	 01	 1	 72	 3.560157e+02	 CrunchShokoVanil.bmp	 ClickBlackWhite3.bmp	 15	 8	 1	 u	 1	 1	 1021.84	 4.80	 4.98	 
bmem_snacks_121	 0	 1	 01	 1	 73	 3.600201e+02	 KashitSour.bmp	 Apropo.bmp	 43	 50	 0	 u	 2	 0	 665.46	 0.53	 0.44	 
bmem_snacks_121	 0	 1	 01	 1	 74	 3.630235e+02	 Smarties.bmp	 BisliPizza3.bmp	 51	 53	 0	 u	 2	 0	 942.05	 0.42	 0.40	 
bmem_snacks_121	 0	 1	 01	 1	 75	 3.740191e+02	 ClickBlackWhite3.bmp	 ChocolateParaCookies5.bmp	 8	 13	 0	 i	 1	 1	 666.38	 4.98	 4.82	 
bmem_snacks_121	 0	 1	 01	 1	 76	 3.840137e+02	 Twix.bmp	 Bounty.bmp	 18	 11	 1	 i	 1	 0	 751.88	 3.62	 4.84	 
bmem_snacks_121	 0	 1	 01	 1	 77	 3.890193e+02	 CrunchBisquitWhite2.bmp	 ClickXLbrown4.bmp	 12	 17	 1	 u	 1	 1	 738.19	 4.84	 3.71	 
bmem_snacks_121	 0	 1	 01	 1	 78	 3.930238e+02	 Hit.bmp	 Twix.bmp	 9	 18	 0	 u	 1	 0	 725.68	 4.91	 3.62	 
bmem_snacks_121	 0	 1	 01	 1	 79	 3.970113e+02	 CrunchBisquitBrown3.bmp	 Halva2.bmp	 16	 7	 0	 u	 1	 0	 970.18	 3.73	 5.18	 
bmem_snacks_121	 0	 1	 01	 1	 80	 4.010160e+02	 Apropo.bmp	 Smarties.bmp	 50	 51	 1	 i	 2	 0	 901.49	 0.44	 0.42	 
bmem_snacks_121	 0	 1	 01	 1	 81	 4.070227e+02	 BisliPizza3.bmp	 KashitSour.bmp	 53	 43	 1	 i	 2	 0	 822.78	 0.40	 0.53	 
bmem_snacks_121	 0	 1	 01	 1	 82	 4.100261e+02	 ChocolateParaMarir2.bmp	 Egozi.bmp	 22	 21	 1	 i	 4	 0	 915.42	 2.84	 2.84	 
bmem_snacks_121	 0	 1	 01	 1	 83	 4.140139e+02	 Halva2.bmp	 ClickBlackWhite3.bmp	 7	 8	 1	 i	 1	 0	 895.63	 5.18	 4.98	 
bmem_snacks_121	 0	 1	 01	 1	 84	 4.180185e+02	 ClickXLbrown4.bmp	 Halva2.bmp	 17	 7	 0	 u	 1	 0	 963.06	 3.71	 5.18	 
