subjectID	scanner	order	block	run	trial	onsettime	ImageLeft	ImageRight	bidIndexLeft	bidIndexRight	IsleftGo	Response	PairType	Outcome	RT	bidLeft	bidRight	
bmem_snacks_122	 0	 2	 02	 1	 1	 2.018866e+00	 HispusimShatiah.bmp	 KinderBuenoBrown3.bmp	 56	 5	 0	 i	 3	 1	 1178.37	 1.60	 7.09	 
bmem_snacks_122	 0	 2	 02	 1	 2	 7.007803e+00	 Keifli.bmp	 Cheetos.bmp	 51	 53	 1	 u	 2	 1	 1173.43	 1.64	 1.62	 
bmem_snacks_122	 0	 2	 02	 1	 3	 1.101225e+01	 KinderBuenoWhite2.bmp	 Kitkat.bmp	 11	 7	 1	 i	 1	 0	 832.99	 6.04	 7.02	 
bmem_snacks_122	 0	 2	 02	 1	 4	 1.401566e+01	 SkittlesSour4.bmp	 KifkefMaklot2.bmp	 18	 14	 0	 i	 1	 1	 725.59	 5.93	 5.96	 
bmem_snacks_122	 0	 2	 02	 1	 5	 2.401018e+01	 KifkefMaklot2.bmp	 PesekZman.bmp	 14	 12	 1	 i	 1	 0	 699.06	 5.96	 5.98	 
bmem_snacks_122	 0	 2	 02	 1	 6	 2.801471e+01	 Cheetos.bmp	 Shugi.bmp	 53	 48	 0	 i	 2	 1	 942.53	 1.62	 1.67	 
bmem_snacks_122	 0	 2	 02	 1	 7	 3.101807e+01	 ClickBalls5.bmp	 Kitkat.bmp	 17	 7	 1	 i	 1	 0	 835.18	 5.93	 7.02	 
bmem_snacks_122	 0	 2	 02	 1	 8	 3.400491e+01	 Mentos.bmp	 Shugi.bmp	 47	 48	 0	 i	 2	 1	 1472.33	 1.67	 1.67	 
bmem_snacks_122	 0	 2	 02	 1	 9	 3.800924e+01	 KinderJoy.bmp	 Shugi.bmp	 52	 48	 0	 i	 2	 1	 900.14	 1.62	 1.67	 
bmem_snacks_122	 0	 2	 02	 1	 10	 5.000616e+01	 Smarties.bmp	 ClickBalls5.bmp	 10	 17	 0	 i	 1	 1	 1463.10	 6.98	 5.93	 
bmem_snacks_122	 0	 2	 02	 1	 11	 5.300940e+01	 Kitkat.bmp	 CrunchBisquitWhite2.bmp	 7	 8	 0	 u	 1	 0	 1243.84	 7.02	 6.98	 
bmem_snacks_122	 0	 2	 02	 1	 12	 5.901623e+01	 SkittlesSour4.bmp	 ClickBalls5.bmp	 18	 17	 0	 i	 1	 1	 1197.03	 5.93	 5.93	 
bmem_snacks_122	 0	 2	 02	 1	 13	 6.200289e+01	 SkittlesFruits2.bmp	 ChocolateParaCookies5.bmp	 13	 16	 0	 i	 1	 1	 1258.35	 5.96	 5.93	 
bmem_snacks_122	 0	 2	 02	 1	 14	 6.800958e+01	 BambaNugat.bmp	 Cheetos.bmp	 49	 53	 1	 u	 2	 1	 1227.70	 1.64	 1.62	 
bmem_snacks_122	 0	 2	 02	 1	 15	 7.301527e+01	 SkittlesFruits2.bmp	 ClickBalls5.bmp	 13	 17	 0	 i	 1	 1	 949.99	 5.96	 5.93	 
bmem_snacks_122	 0	 2	 02	 1	 16	 8.100758e+01	 Keifli.bmp	 Popco.bmp	 51	 45	 1	 u	 2	 1	 829.67	 1.64	 1.67	 
bmem_snacks_122	 0	 2	 02	 1	 17	 8.401085e+01	 KinderBuenoWhite2.bmp	 PesekZman.bmp	 11	 12	 1	 i	 1	 0	 1282.39	 6.04	 5.98	 
bmem_snacks_122	 0	 2	 02	 1	 18	 9.300432e+01	 Dubonim.bmp	 HispusimShatiah.bmp	 6	 56	 1	 u	 3	 1	 808.92	 7.02	 1.60	 
bmem_snacks_122	 0	 2	 02	 1	 19	 9.700878e+01	 Keifli.bmp	 DoritosSourSpicy.bmp	 51	 44	 1	 u	 2	 1	 660.46	 1.64	 1.69	 
bmem_snacks_122	 0	 2	 02	 1	 20	 1.060189e+02	 CrunchBisquitBrown3.bmp	 Kitkat.bmp	 9	 7	 1	 i	 1	 0	 1410.34	 6.98	 7.02	 
bmem_snacks_122	 0	 2	 02	 1	 21	 1.090056e+02	 Shugi.bmp	 DoritosSourSpicy.bmp	 48	 44	 1	 x	 2	 999	 999000.00	 1.67	 1.69	 
bmem_snacks_122	 0	 2	 02	 1	 22	 1.130100e+02	 Dubonim.bmp	 ChocolateParaSucariotKoftzot2.bmp	 6	 55	 1	 u	 3	 1	 859.19	 7.02	 1.60	 
bmem_snacks_122	 0	 2	 02	 1	 23	 1.190169e+02	 Twix.bmp	 CrunchBisquitWhite2.bmp	 15	 8	 0	 i	 1	 1	 764.43	 5.93	 6.98	 
bmem_snacks_122	 0	 2	 02	 1	 24	 1.220033e+02	 Mentos.bmp	 Halva2.bmp	 47	 43	 0	 i	 2	 1	 1009.99	 1.67	 1.69	 
bmem_snacks_122	 0	 2	 02	 1	 25	 1.260080e+02	 KinderBuenoWhite2.bmp	 Twix.bmp	 11	 15	 1	 x	 1	 999	 999000.00	 6.04	 5.93	 
bmem_snacks_122	 0	 2	 02	 1	 26	 1.330159e+02	 Halva2.bmp	 Cheetos.bmp	 43	 53	 1	 i	 2	 0	 885.36	 1.69	 1.62	 
bmem_snacks_122	 0	 2	 02	 1	 27	 1.360193e+02	 BambaNugat.bmp	 KinderJoy.bmp	 49	 52	 1	 u	 2	 1	 641.95	 1.64	 1.62	 
bmem_snacks_122	 0	 2	 02	 1	 28	 1.390059e+02	 Smarties.bmp	 KinderBuenoWhite2.bmp	 10	 11	 0	 i	 1	 1	 783.40	 6.98	 6.04	 
bmem_snacks_122	 0	 2	 02	 1	 29	 1.420093e+02	 GumiSnakes3.bmp	 Halva2.bmp	 50	 43	 0	 i	 2	 1	 699.96	 1.64	 1.69	 
bmem_snacks_122	 0	 2	 02	 1	 30	 1.470149e+02	 KinderJoy.bmp	 DoritosGrill.bmp	 52	 54	 0	 i	 2	 1	 710.37	 1.62	 1.62	 
bmem_snacks_122	 0	 2	 02	 1	 31	 1.500182e+02	 ClickBlackWhite3.bmp	 BisliPizza3.bmp	 21	 22	 1	 u	 4	 1	 962.99	 4.91	 4.89	 
bmem_snacks_122	 0	 2	 02	 1	 32	 1.540062e+02	 ChocolateParaMarir2.bmp	 KinderJoy.bmp	 46	 52	 1	 u	 2	 1	 687.08	 1.67	 1.62	 
bmem_snacks_122	 0	 2	 02	 1	 33	 1.670038e+02	 CrunchBisquitBrown3.bmp	 PesekZman.bmp	 9	 12	 1	 u	 1	 1	 833.46	 6.98	 5.98	 
bmem_snacks_122	 0	 2	 02	 1	 34	 1.720096e+02	 DoritosSourSpicy.bmp	 Halva2.bmp	 44	 43	 0	 u	 2	 0	 995.64	 1.69	 1.69	 
bmem_snacks_122	 0	 2	 02	 1	 35	 1.760141e+02	 Cheetos.bmp	 ChocolateParaMarir2.bmp	 53	 46	 0	 i	 2	 1	 1071.11	 1.62	 1.67	 
bmem_snacks_122	 0	 2	 02	 1	 36	 1.820039e+02	 Popco.bmp	 ChocolateParaMarir2.bmp	 45	 46	 0	 i	 2	 1	 993.39	 1.67	 1.67	 
bmem_snacks_122	 0	 2	 02	 1	 37	 1.880109e+02	 GumiSnakes3.bmp	 Keifli.bmp	 50	 51	 0	 i	 2	 1	 818.38	 1.64	 1.64	 
bmem_snacks_122	 0	 2	 02	 1	 38	 1.910143e+02	 KifkefMaklot2.bmp	 Twix.bmp	 14	 15	 1	 u	 1	 1	 1006.99	 5.96	 5.93	 
bmem_snacks_122	 0	 2	 02	 1	 39	 1.970040e+02	 CrunchBisquitWhite2.bmp	 SkittlesFruits2.bmp	 8	 13	 1	 u	 1	 1	 873.26	 6.98	 5.96	 
bmem_snacks_122	 0	 2	 02	 1	 40	 2.000078e+02	 ChocolateParaCookies5.bmp	 Kitkat.bmp	 16	 7	 1	 i	 1	 0	 893.49	 5.93	 7.02	 
bmem_snacks_122	 0	 2	 02	 1	 41	 2.070156e+02	 DoritosSourSpicy.bmp	 BambaNugat.bmp	 44	 49	 0	 i	 2	 1	 1109.67	 1.69	 1.64	 
bmem_snacks_122	 0	 2	 02	 1	 42	 2.170101e+02	 GumiSnakes3.bmp	 BambaNugat.bmp	 50	 49	 0	 i	 2	 1	 739.11	 1.64	 1.64	 
bmem_snacks_122	 0	 2	 02	 1	 43	 2.200136e+02	 BambaNugat.bmp	 Popco.bmp	 49	 45	 1	 u	 2	 1	 1087.69	 1.64	 1.67	 
bmem_snacks_122	 0	 2	 02	 1	 44	 2.240179e+02	 Hit.bmp	 ClickXLwhite4.bmp	 39	 40	 0	 i	 5	 1	 939.33	 2.71	 1.73	 
bmem_snacks_122	 0	 2	 02	 1	 45	 2.280059e+02	 DoritosSourSpicy.bmp	 ChocolateParaMarir2.bmp	 44	 46	 0	 i	 2	 1	 1063.36	 1.69	 1.67	 
bmem_snacks_122	 0	 2	 02	 1	 46	 2.310092e+02	 Halva2.bmp	 KinderJoy.bmp	 43	 52	 1	 i	 2	 0	 1444.05	 1.69	 1.62	 
bmem_snacks_122	 0	 2	 02	 1	 47	 2.370160e+02	 CrunchShokoVanil.bmp	 Snickers.bmp	 19	 20	 0	 i	 4	 1	 1141.29	 5.91	 4.91	 
bmem_snacks_122	 0	 2	 02	 1	 48	 2.420049e+02	 CrunchShokoVanil.bmp	 Snickers.bmp	 19	 20	 0	 i	 4	 1	 856.39	 5.91	 4.91	 
bmem_snacks_122	 0	 2	 02	 1	 49	 2.450082e+02	 Popco.bmp	 DoritosGrill.bmp	 45	 54	 0	 i	 2	 1	 1037.01	 1.67	 1.62	 
bmem_snacks_122	 0	 2	 02	 1	 50	 2.490127e+02	 Mentos.bmp	 Keifli.bmp	 47	 51	 0	 i	 2	 1	 792.53	 1.67	 1.64	 
bmem_snacks_122	 0	 2	 02	 1	 51	 2.570050e+02	 KinderBuenoWhite2.bmp	 SkittlesFruits2.bmp	 11	 13	 1	 u	 1	 1	 992.25	 6.04	 5.96	 
bmem_snacks_122	 0	 2	 02	 1	 52	 2.620106e+02	 KifkefMaklot2.bmp	 Kitkat.bmp	 14	 7	 1	 i	 1	 0	 842.63	 5.96	 7.02	 
bmem_snacks_122	 0	 2	 02	 1	 53	 2.670163e+02	 Keifli.bmp	 KinderJoy.bmp	 51	 52	 1	 u	 2	 1	 876.96	 1.64	 1.62	 
bmem_snacks_122	 0	 2	 02	 1	 54	 2.750086e+02	 Popco.bmp	 Shugi.bmp	 45	 48	 0	 i	 2	 1	 1140.62	 1.67	 1.67	 
bmem_snacks_122	 0	 2	 02	 1	 55	 2.800141e+02	 DoritosSourSpicy.bmp	 DoritosGrill.bmp	 44	 54	 0	 u	 2	 0	 1303.13	 1.69	 1.62	 
bmem_snacks_122	 0	 2	 02	 1	 56	 2.870053e+02	 Twix.bmp	 CrunchBisquitBrown3.bmp	 15	 9	 0	 i	 1	 1	 855.97	 5.93	 6.98	 
bmem_snacks_122	 0	 2	 02	 1	 57	 2.920110e+02	 ChocolateParaCookies5.bmp	 PesekZman.bmp	 16	 12	 1	 i	 1	 0	 1026.28	 5.93	 5.98	 
bmem_snacks_122	 0	 2	 02	 1	 58	 3.000032e+02	 ChocolateParaMarir2.bmp	 Mentos.bmp	 46	 47	 1	 u	 2	 1	 953.99	 1.67	 1.67	 
bmem_snacks_122	 0	 2	 02	 1	 59	 3.050088e+02	 CrunchBisquitBrown3.bmp	 Smarties.bmp	 9	 10	 1	 u	 1	 1	 1252.41	 6.98	 6.98	 
bmem_snacks_122	 0	 2	 02	 1	 60	 3.100142e+02	 PesekZman.bmp	 ClickBalls5.bmp	 12	 17	 0	 u	 1	 0	 895.06	 5.98	 5.93	 
bmem_snacks_122	 0	 2	 02	 1	 61	 3.150030e+02	 KinderBuenoWhite2.bmp	 SkittlesSour4.bmp	 11	 18	 1	 u	 1	 1	 986.20	 6.04	 5.93	 
bmem_snacks_122	 0	 2	 02	 1	 62	 3.190079e+02	 Cheetos.bmp	 DoritosGrill.bmp	 53	 54	 0	 i	 2	 1	 1301.38	 1.62	 1.62	 
bmem_snacks_122	 0	 2	 02	 1	 63	 3.230124e+02	 ChocolateParaCookies5.bmp	 Twix.bmp	 16	 15	 1	 i	 1	 0	 1080.82	 5.93	 5.93	 
bmem_snacks_122	 0	 2	 02	 1	 64	 3.280180e+02	 KifkefMaklot2.bmp	 Smarties.bmp	 14	 10	 1	 u	 1	 1	 1027.26	 5.96	 6.98	 
bmem_snacks_122	 0	 2	 02	 1	 65	 3.320058e+02	 Popco.bmp	 Halva2.bmp	 45	 43	 0	 u	 2	 0	 847.42	 1.67	 1.69	 
bmem_snacks_122	 0	 2	 02	 1	 66	 3.380125e+02	 GumiSnakes3.bmp	 Shugi.bmp	 50	 48	 0	 i	 2	 1	 1000.72	 1.64	 1.67	 
bmem_snacks_122	 0	 2	 02	 1	 67	 3.410159e+02	 ChocolateParaCookies5.bmp	 Smarties.bmp	 16	 10	 1	 u	 1	 1	 877.34	 5.93	 6.98	 
bmem_snacks_122	 0	 2	 02	 1	 68	 3.440193e+02	 ClickXLwhite4.bmp	 Hit.bmp	 40	 39	 1	 u	 5	 1	 937.95	 1.73	 2.71	 
bmem_snacks_122	 0	 2	 02	 1	 69	 3.480071e+02	 DoritosGrill.bmp	 Mentos.bmp	 54	 47	 1	 u	 2	 1	 806.19	 1.62	 1.67	 
bmem_snacks_122	 0	 2	 02	 1	 70	 3.520115e+02	 ChocolateParaCookies5.bmp	 SkittlesSour4.bmp	 16	 18	 1	 u	 1	 1	 1137.71	 5.93	 5.93	 
bmem_snacks_122	 0	 2	 02	 1	 71	 3.550149e+02	 BisliPizza3.bmp	 ClickBlackWhite3.bmp	 22	 21	 0	 i	 4	 1	 918.34	 4.89	 4.91	 
bmem_snacks_122	 0	 2	 02	 1	 72	 3.590195e+02	 Smarties.bmp	 CrunchBisquitWhite2.bmp	 10	 8	 0	 i	 1	 1	 1153.74	 6.98	 6.98	 
bmem_snacks_122	 0	 2	 02	 1	 73	 3.630072e+02	 DoritosNatural.bmp	 BambaSweet.bmp	 41	 42	 1	 u	 5	 1	 1293.99	 1.69	 1.69	 
bmem_snacks_122	 0	 2	 02	 1	 74	 3.660107e+02	 ClickBalls5.bmp	 Twix.bmp	 17	 15	 1	 u	 1	 1	 1226.56	 5.93	 5.93	 
bmem_snacks_122	 0	 2	 02	 1	 75	 3.700151e+02	 SkittlesSour4.bmp	 CrunchBisquitWhite2.bmp	 18	 8	 0	 i	 1	 1	 846.16	 5.93	 6.98	 
bmem_snacks_122	 0	 2	 02	 1	 76	 3.750041e+02	 SkittlesFruits2.bmp	 CrunchBisquitBrown3.bmp	 13	 9	 0	 i	 1	 1	 713.15	 5.96	 6.98	 
bmem_snacks_122	 0	 2	 02	 1	 77	 3.780074e+02	 ChocolateParaMarir2.bmp	 GumiSnakes3.bmp	 46	 50	 1	 u	 2	 1	 1061.82	 1.67	 1.64	 
bmem_snacks_122	 0	 2	 02	 1	 78	 3.850153e+02	 BambaNugat.bmp	 Mentos.bmp	 49	 47	 1	 u	 2	 1	 709.96	 1.64	 1.67	 
bmem_snacks_122	 0	 2	 02	 1	 79	 3.900043e+02	 CrunchBisquitBrown3.bmp	 SkittlesSour4.bmp	 9	 18	 1	 u	 1	 1	 672.94	 6.98	 5.93	 
bmem_snacks_122	 0	 2	 02	 1	 80	 3.950098e+02	 SkittlesFruits2.bmp	 KifkefMaklot2.bmp	 13	 14	 0	 i	 1	 1	 923.46	 5.96	 5.96	 
bmem_snacks_122	 0	 2	 02	 1	 81	 3.990144e+02	 ChocolateParaSucariotKoftzot2.bmp	 KinderBuenoBrown3.bmp	 55	 5	 0	 i	 3	 1	 1398.87	 1.60	 7.09	 
bmem_snacks_122	 0	 2	 02	 1	 82	 4.080077e+02	 PesekZman.bmp	 CrunchBisquitWhite2.bmp	 12	 8	 0	 i	 1	 1	 901.51	 5.98	 6.98	 
bmem_snacks_122	 0	 2	 02	 1	 83	 4.110112e+02	 DoritosGrill.bmp	 GumiSnakes3.bmp	 54	 50	 1	 u	 2	 1	 722.06	 1.62	 1.64	 
bmem_snacks_122	 0	 2	 02	 1	 84	 4.180190e+02	 BambaSweet.bmp	 DoritosNatural.bmp	 42	 41	 0	 u	 5	 0	 754.23	 1.69	 1.69	 
