subjectID	scanner	order	block	run	trial	onsettime	ImageLeft	ImageRight	bidIndexLeft	bidIndexRight	IsleftGo	Response	PairType	Outcome	RT	bidLeft	bidRight	
bmem_snacks_120	 0	 2	 05	 1	 1	 2.018602e+00	 CrunchBisquitWhite2.bmp	 Mekupelet.bmp	 39	 40	 0	 i	 5	 1	 1121.95	 3.82	 3.78	 
bmem_snacks_120	 0	 2	 05	 1	 2	 5.021968e+00	 Dubonim.bmp	 Apropo.bmp	 10	 11	 0	 u	 1	 0	 1014.58	 7.02	 7.02	 
bmem_snacks_120	 0	 2	 05	 1	 3	 1.002766e+01	 ChocolateParaMilk3.bmp	 Tortit.bmp	 46	 52	 1	 u	 2	 1	 1136.89	 2.67	 0.20	 
bmem_snacks_120	 0	 2	 05	 1	 4	 1.301430e+01	 Tortit.bmp	 Twist.bmp	 52	 54	 0	 u	 2	 0	 1214.25	 0.20	 0.18	 
bmem_snacks_120	 0	 2	 05	 1	 5	 1.601767e+01	 GumiSnakes3.bmp	 CrunchShokoVanil.bmp	 49	 50	 1	 u	 2	 1	 1098.88	 0.56	 0.53	 
bmem_snacks_120	 0	 2	 05	 1	 6	 2.102321e+01	 Smarties.bmp	 BambaSweet.bmp	 47	 51	 0	 u	 2	 0	 1029.34	 1.64	 0.27	 
bmem_snacks_120	 0	 2	 05	 1	 7	 2.502772e+01	 ClickBisquit2.bmp	 ChocolateParaSucariotKoftzot2.bmp	 8	 7	 1	 u	 1	 1	 928.83	 8.07	 8.09	 
bmem_snacks_120	 0	 2	 05	 1	 8	 3.001672e+01	 ClickXLwhite4.bmp	 DoritosNatural.bmp	 16	 13	 1	 u	 1	 1	 1203.84	 6.02	 6.93	 
bmem_snacks_120	 0	 2	 05	 1	 9	 3.602349e+01	 SkittlesSour4.bmp	 Hit.bmp	 42	 41	 0	 i	 5	 1	 1109.07	 3.76	 3.78	 
bmem_snacks_120	 0	 2	 05	 1	 10	 4.101206e+01	 BisliPizza3.bmp	 KinderJoy.bmp	 22	 21	 0	 u	 4	 0	 1048.48	 5.91	 5.93	 
bmem_snacks_120	 0	 2	 05	 1	 11	 4.902136e+01	 ChocolateParaSucariotKoftzot2.bmp	 BisliOnion.bmp	 7	 17	 0	 i	 1	 1	 1159.20	 8.09	 6.00	 
bmem_snacks_120	 0	 2	 05	 1	 12	 5.302580e+01	 CrunchShokoVanil.bmp	 Popco.bmp	 50	 48	 0	 i	 2	 1	 914.76	 0.53	 1.64	 
bmem_snacks_120	 0	 2	 05	 1	 13	 5.701335e+01	 ClickXLwhite4.bmp	 ChocolateParaCookies5.bmp	 16	 18	 1	 i	 1	 0	 975.21	 6.02	 5.98	 
bmem_snacks_120	 0	 2	 05	 1	 14	 6.402146e+01	 KashitSour.bmp	 Twist.bmp	 45	 54	 0	 u	 2	 0	 879.09	 2.73	 0.18	 
bmem_snacks_120	 0	 2	 05	 1	 15	 6.702477e+01	 Taami.bmp	 Keifli.bmp	 6	 56	 1	 u	 3	 1	 1051.79	 8.11	 0.18	 
bmem_snacks_120	 0	 2	 05	 1	 16	 7.002815e+01	 CrunchBisquitWhite2.bmp	 Mekupelet.bmp	 39	 40	 0	 i	 5	 1	 1120.40	 3.82	 3.78	 
bmem_snacks_120	 0	 2	 05	 1	 17	 8.102383e+01	 ChocolateParaCookies5.bmp	 Bounty.bmp	 18	 14	 0	 u	 1	 0	 932.72	 5.98	 6.91	 
bmem_snacks_120	 0	 2	 05	 1	 18	 9.302061e+01	 BambaSweet.bmp	 Tortit.bmp	 51	 52	 1	 u	 2	 1	 727.95	 0.27	 0.20	 
bmem_snacks_120	 0	 2	 05	 1	 19	 9.802617e+01	 HispusimShatiah.bmp	 BambaSweet.bmp	 44	 51	 0	 u	 2	 0	 858.39	 2.78	 0.27	 
bmem_snacks_120	 0	 2	 05	 1	 20	 1.010296e+02	 Twist.bmp	 CrunchShokoVanil.bmp	 54	 50	 1	 i	 2	 0	 1142.94	 0.18	 0.53	 
bmem_snacks_120	 0	 2	 05	 1	 21	 1.080207e+02	 KinderBuenoWhite2.bmp	 Bamba.bmp	 15	 9	 0	 i	 1	 1	 687.85	 6.13	 8.02	 
bmem_snacks_120	 0	 2	 05	 1	 22	 1.130264e+02	 KinderBuenoWhite2.bmp	 ClickXLwhite4.bmp	 15	 16	 0	 i	 1	 1	 906.18	 6.13	 6.02	 
bmem_snacks_120	 0	 2	 05	 1	 23	 1.160127e+02	 DoritosNatural.bmp	 Bounty.bmp	 13	 14	 0	 u	 1	 0	 863.81	 6.93	 6.91	 
bmem_snacks_120	 0	 2	 05	 1	 24	 1.230208e+02	 HispusimShatiah.bmp	 Kitkat.bmp	 44	 43	 0	 i	 2	 1	 951.73	 2.78	 3.33	 
bmem_snacks_120	 0	 2	 05	 1	 25	 1.270253e+02	 Dubonim.bmp	 ClickBisquit2.bmp	 10	 8	 0	 u	 1	 0	 1267.22	 7.02	 8.07	 
bmem_snacks_120	 0	 2	 05	 1	 26	 1.300287e+02	 Kitkat.bmp	 Smarties.bmp	 43	 47	 1	 u	 2	 1	 807.83	 3.33	 1.64	 
bmem_snacks_120	 0	 2	 05	 1	 27	 1.340165e+02	 BisliOnion.bmp	 BambaNugat.bmp	 17	 12	 1	 i	 1	 0	 1212.06	 6.00	 7.00	 
bmem_snacks_120	 0	 2	 05	 1	 28	 1.400232e+02	 BambaSweet.bmp	 CrunchShokoVanil.bmp	 51	 50	 1	 u	 2	 1	 1125.31	 0.27	 0.53	 
bmem_snacks_120	 0	 2	 05	 1	 29	 1.430266e+02	 GumiSnakes3.bmp	 KashitSour.bmp	 49	 45	 1	 i	 2	 0	 849.99	 0.56	 2.73	 
bmem_snacks_120	 0	 2	 05	 1	 30	 1.500178e+02	 Bamba.bmp	 Dubonim.bmp	 9	 10	 1	 i	 1	 0	 874.76	 8.02	 7.02	 
bmem_snacks_120	 0	 2	 05	 1	 31	 1.640168e+02	 BambaSweet.bmp	 GumiWine2.bmp	 51	 53	 1	 i	 2	 0	 1147.81	 0.27	 0.20	 
bmem_snacks_120	 0	 2	 05	 1	 32	 1.680212e+02	 Twist.bmp	 Smarties.bmp	 54	 47	 1	 u	 2	 1	 1183.34	 0.18	 1.64	 
bmem_snacks_120	 0	 2	 05	 1	 33	 1.810192e+02	 WerthersOriginal.bmp	 BabyDoll.bmp	 55	 5	 0	 i	 3	 1	 1129.39	 0.18	 8.13	 
bmem_snacks_120	 0	 2	 05	 1	 34	 1.870259e+02	 Kitkat.bmp	 Tortit.bmp	 43	 52	 1	 u	 2	 1	 1042.67	 3.33	 0.20	 
bmem_snacks_120	 0	 2	 05	 1	 35	 1.900123e+02	 BabyDoll.bmp	 Keifli.bmp	 5	 56	 1	 u	 3	 1	 1032.28	 8.13	 0.18	 
bmem_snacks_120	 0	 2	 05	 1	 36	 1.950182e+02	 KashitSour.bmp	 BambaSweet.bmp	 45	 51	 0	 u	 2	 0	 810.34	 2.73	 0.27	 
bmem_snacks_120	 0	 2	 05	 1	 37	 1.980215e+02	 GumiSnakes3.bmp	 Tortit.bmp	 49	 52	 1	 i	 2	 0	 1439.05	 0.56	 0.20	 
bmem_snacks_120	 0	 2	 05	 1	 38	 2.030271e+02	 BambaNugat.bmp	 Bounty.bmp	 12	 14	 0	 u	 1	 0	 745.49	 7.00	 6.91	 
bmem_snacks_120	 0	 2	 05	 1	 39	 2.120205e+02	 Bounty.bmp	 ChocolateParaSucariotKoftzot2.bmp	 14	 7	 1	 u	 1	 1	 1448.06	 6.91	 8.09	 
bmem_snacks_120	 0	 2	 05	 1	 40	 2.160250e+02	 ClickBisquit2.bmp	 ChocolateParaCookies5.bmp	 8	 18	 1	 i	 1	 0	 923.54	 8.07	 5.98	 
bmem_snacks_120	 0	 2	 05	 1	 41	 2.220151e+02	 GumiWine2.bmp	 ChocolateParaMilk3.bmp	 53	 46	 0	 u	 2	 0	 1165.41	 0.20	 2.67	 
bmem_snacks_120	 0	 2	 05	 1	 42	 2.250184e+02	 KashitSour.bmp	 ChocolateParaMilk3.bmp	 45	 46	 0	 u	 2	 0	 866.16	 2.73	 2.67	 
bmem_snacks_120	 0	 2	 05	 1	 43	 2.310251e+02	 GumiWine2.bmp	 Kitkat.bmp	 53	 43	 0	 u	 2	 0	 771.38	 0.20	 3.33	 
bmem_snacks_120	 0	 2	 05	 1	 44	 2.350129e+02	 Twist.bmp	 GumiWine2.bmp	 54	 53	 1	 i	 2	 0	 887.63	 0.18	 0.20	 
bmem_snacks_120	 0	 2	 05	 1	 45	 2.410196e+02	 GumiSnakes3.bmp	 Smarties.bmp	 49	 47	 1	 u	 2	 1	 912.91	 0.56	 1.64	 
bmem_snacks_120	 0	 2	 05	 1	 46	 2.440230e+02	 ClickBisquit2.bmp	 DoritosNatural.bmp	 8	 13	 1	 u	 1	 1	 965.58	 8.07	 6.93	 
bmem_snacks_120	 0	 2	 05	 1	 47	 2.470264e+02	 KashitSour.bmp	 Kitkat.bmp	 45	 43	 0	 u	 2	 0	 730.18	 2.73	 3.33	 
bmem_snacks_120	 0	 2	 05	 1	 48	 2.510142e+02	 Bounty.bmp	 KinderBuenoWhite2.bmp	 14	 15	 1	 i	 1	 0	 926.32	 6.91	 6.13	 
bmem_snacks_120	 0	 2	 05	 1	 49	 2.590232e+02	 BisliPizza3.bmp	 KinderJoy.bmp	 22	 21	 0	 i	 4	 1	 1037.37	 5.91	 5.93	 
bmem_snacks_120	 0	 2	 05	 1	 50	 2.630276e+02	 ChocolateParaCookies5.bmp	 Bamba.bmp	 18	 9	 0	 i	 1	 1	 648.94	 5.98	 8.02	 
bmem_snacks_120	 0	 2	 05	 1	 51	 2.660143e+02	 Smarties.bmp	 Popco.bmp	 47	 48	 0	 i	 2	 1	 854.23	 1.64	 1.64	 
bmem_snacks_120	 0	 2	 05	 1	 52	 2.690177e+02	 Apropo.bmp	 BambaNugat.bmp	 11	 12	 1	 i	 1	 0	 1154.85	 7.02	 7.00	 
bmem_snacks_120	 0	 2	 05	 1	 53	 2.750244e+02	 Taami.bmp	 WerthersOriginal.bmp	 6	 55	 1	 u	 3	 1	 924.19	 8.11	 0.18	 
bmem_snacks_120	 0	 2	 05	 1	 54	 2.790289e+02	 ChocolateParaSucariotKoftzot2.bmp	 Bamba.bmp	 7	 9	 0	 i	 1	 1	 751.69	 8.09	 8.02	 
bmem_snacks_120	 0	 2	 05	 1	 55	 2.820155e+02	 Kitkat.bmp	 CrunchShokoVanil.bmp	 43	 50	 1	 u	 2	 1	 1477.01	 3.33	 0.53	 
bmem_snacks_120	 0	 2	 05	 1	 56	 2.870212e+02	 Apropo.bmp	 ChocolateParaSucariotKoftzot2.bmp	 11	 7	 1	 u	 1	 1	 919.42	 7.02	 8.09	 
bmem_snacks_120	 0	 2	 05	 1	 57	 2.910256e+02	 Dubonim.bmp	 BisliOnion.bmp	 10	 17	 0	 u	 1	 0	 890.91	 7.02	 6.00	 
bmem_snacks_120	 0	 2	 05	 1	 58	 3.000190e+02	 HispusimShatiah.bmp	 ChocolateParaMilk3.bmp	 44	 46	 0	 u	 2	 0	 1185.53	 2.78	 2.67	 
bmem_snacks_120	 0	 2	 05	 1	 59	 3.050246e+02	 DoritosNatural.bmp	 Bamba.bmp	 13	 9	 0	 i	 1	 1	 803.90	 6.93	 8.02	 
bmem_snacks_120	 0	 2	 05	 1	 60	 3.080280e+02	 Popco.bmp	 GumiWine2.bmp	 48	 53	 1	 i	 2	 0	 1104.59	 1.64	 0.20	 
bmem_snacks_120	 0	 2	 05	 1	 61	 3.130169e+02	 Bamba.bmp	 BambaNugat.bmp	 9	 12	 1	 u	 1	 1	 1267.66	 8.02	 7.00	 
bmem_snacks_120	 0	 2	 05	 1	 62	 3.210259e+02	 GumiSnakes3.bmp	 HispusimShatiah.bmp	 49	 44	 1	 i	 2	 0	 770.60	 0.56	 2.78	 
bmem_snacks_120	 0	 2	 05	 1	 63	 3.240127e+02	 Dubonim.bmp	 Bounty.bmp	 10	 14	 0	 u	 1	 0	 751.89	 7.02	 6.91	 
bmem_snacks_120	 0	 2	 05	 1	 64	 3.270160e+02	 Apropo.bmp	 KinderBuenoWhite2.bmp	 11	 15	 1	 u	 1	 1	 1004.56	 7.02	 6.13	 
bmem_snacks_120	 0	 2	 05	 1	 65	 3.300193e+02	 GumiSnakes3.bmp	 GumiWine2.bmp	 49	 53	 1	 u	 2	 1	 1201.23	 0.56	 0.20	 
bmem_snacks_120	 0	 2	 05	 1	 66	 3.350249e+02	 BisliOnion.bmp	 KinderBuenoWhite2.bmp	 17	 15	 1	 u	 1	 1	 627.61	 6.00	 6.13	 
bmem_snacks_120	 0	 2	 05	 1	 67	 3.400139e+02	 ClickBisquit2.bmp	 BambaNugat.bmp	 8	 12	 1	 u	 1	 1	 1286.70	 8.07	 7.00	 
bmem_snacks_120	 0	 2	 05	 1	 68	 3.430172e+02	 ClickXLwhite4.bmp	 Dubonim.bmp	 16	 10	 1	 i	 1	 0	 771.36	 6.02	 7.02	 
bmem_snacks_120	 0	 2	 05	 1	 69	 3.490239e+02	 Twix.bmp	 HappyHippo.bmp	 19	 20	 0	 u	 4	 0	 1236.66	 5.96	 5.96	 
bmem_snacks_120	 0	 2	 05	 1	 70	 3.530284e+02	 ClickBisquit2.bmp	 KinderBuenoWhite2.bmp	 8	 15	 1	 u	 1	 1	 800.20	 8.07	 6.13	 
bmem_snacks_120	 0	 2	 05	 1	 71	 3.560152e+02	 Smarties.bmp	 ChocolateParaMilk3.bmp	 47	 46	 0	 i	 2	 1	 1077.37	 1.64	 2.67	 
bmem_snacks_120	 0	 2	 05	 1	 72	 3.670274e+02	 Popco.bmp	 HispusimShatiah.bmp	 48	 44	 1	 i	 2	 0	 817.12	 1.64	 2.78	 
bmem_snacks_120	 0	 2	 05	 1	 73	 3.730175e+02	 DoritosNatural.bmp	 Apropo.bmp	 13	 11	 0	 i	 1	 1	 939.05	 6.93	 7.02	 
bmem_snacks_120	 0	 2	 05	 1	 74	 3.780231e+02	 Popco.bmp	 KashitSour.bmp	 48	 45	 1	 i	 2	 0	 717.48	 1.64	 2.73	 
bmem_snacks_120	 0	 2	 05	 1	 75	 3.810264e+02	 Popco.bmp	 Tortit.bmp	 48	 52	 1	 u	 2	 1	 1042.11	 1.64	 0.20	 
bmem_snacks_120	 0	 2	 05	 1	 76	 3.850142e+02	 ChocolateParaCookies5.bmp	 BisliOnion.bmp	 18	 17	 0	 x	 1	 999	 999000.00	 5.98	 6.00	 
bmem_snacks_120	 0	 2	 05	 1	 77	 3.910209e+02	 SkittlesSour4.bmp	 Hit.bmp	 42	 41	 0	 u	 5	 0	 1087.61	 3.76	 3.78	 
bmem_snacks_120	 0	 2	 05	 1	 78	 3.950255e+02	 CrunchShokoVanil.bmp	 ChocolateParaMilk3.bmp	 50	 46	 0	 i	 2	 1	 979.09	 0.53	 2.67	 
bmem_snacks_120	 0	 2	 05	 1	 79	 3.980288e+02	 BambaNugat.bmp	 ClickXLwhite4.bmp	 12	 16	 0	 u	 1	 0	 1071.75	 7.00	 6.02	 
bmem_snacks_120	 0	 2	 05	 1	 80	 4.010154e+02	 ClickXLwhite4.bmp	 ChocolateParaSucariotKoftzot2.bmp	 16	 7	 1	 i	 1	 0	 957.10	 6.02	 8.09	 
bmem_snacks_120	 0	 2	 05	 1	 81	 4.050200e+02	 Twix.bmp	 HappyHippo.bmp	 19	 20	 0	 u	 4	 0	 1032.60	 5.96	 5.96	 
bmem_snacks_120	 0	 2	 05	 1	 82	 4.110266e+02	 ChocolateParaCookies5.bmp	 Apropo.bmp	 18	 11	 0	 i	 1	 1	 1297.93	 5.98	 7.02	 
bmem_snacks_120	 0	 2	 05	 1	 83	 4.140130e+02	 Twist.bmp	 HispusimShatiah.bmp	 54	 44	 1	 i	 2	 0	 823.53	 0.18	 2.78	 
bmem_snacks_120	 0	 2	 05	 1	 84	 4.180179e+02	 DoritosNatural.bmp	 BisliOnion.bmp	 13	 17	 0	 u	 1	 0	 794.65	 6.93	 6.00	 
