subjectID	scanner	order	block	run	trial	onsettime	ImageLeft	ImageRight	bidIndexLeft	bidIndexRight	IsleftGo	Response	PairType	Outcome	RT	bidLeft	bidRight	
bmem_snacks_120	 0	 2	 02	 1	 1	 2.018829e+00	 Keifli.bmp	 BabyDoll.bmp	 56	 5	 0	 i	 3	 1	 1225.44	 0.18	 8.13	 
bmem_snacks_120	 0	 2	 02	 1	 2	 8.025527e+00	 BambaNugat.bmp	 Apropo.bmp	 12	 11	 0	 i	 1	 1	 1282.74	 7.00	 7.02	 
bmem_snacks_120	 0	 2	 02	 1	 3	 1.102887e+01	 KashitSour.bmp	 Popco.bmp	 45	 48	 0	 i	 2	 1	 759.40	 2.73	 1.64	 
bmem_snacks_120	 0	 2	 02	 1	 4	 1.802004e+01	 ChocolateParaMilk3.bmp	 Tortit.bmp	 46	 52	 1	 u	 2	 1	 632.23	 2.67	 0.20	 
bmem_snacks_120	 0	 2	 02	 1	 5	 2.102344e+01	 Kitkat.bmp	 GumiWine2.bmp	 43	 53	 1	 u	 2	 1	 844.83	 3.33	 0.20	 
bmem_snacks_120	 0	 2	 02	 1	 6	 2.602908e+01	 Keifli.bmp	 Taami.bmp	 56	 6	 0	 i	 3	 1	 775.60	 0.18	 8.11	 
bmem_snacks_120	 0	 2	 02	 1	 7	 3.101800e+01	 Bamba.bmp	 BambaNugat.bmp	 9	 12	 1	 u	 1	 1	 714.27	 8.02	 7.00	 
bmem_snacks_120	 0	 2	 02	 1	 8	 3.402140e+01	 Apropo.bmp	 ChocolateParaSucariotKoftzot2.bmp	 11	 7	 1	 u	 1	 1	 926.87	 7.02	 8.09	 
bmem_snacks_120	 0	 2	 02	 1	 9	 3.802586e+01	 ClickBisquit2.bmp	 Dubonim.bmp	 8	 10	 1	 i	 1	 0	 986.44	 8.07	 7.02	 
bmem_snacks_120	 0	 2	 02	 1	 10	 4.102918e+01	 KashitSour.bmp	 BambaSweet.bmp	 45	 51	 0	 i	 2	 1	 959.09	 2.73	 0.27	 
bmem_snacks_120	 0	 2	 02	 1	 11	 4.501683e+01	 Popco.bmp	 Tortit.bmp	 48	 52	 1	 u	 2	 1	 875.46	 1.64	 0.20	 
bmem_snacks_120	 0	 2	 02	 1	 12	 5.002260e+01	 Hit.bmp	 SkittlesSour4.bmp	 41	 42	 1	 u	 5	 1	 709.69	 3.78	 3.76	 
bmem_snacks_120	 0	 2	 02	 1	 13	 5.302608e+01	 CrunchShokoVanil.bmp	 GumiSnakes3.bmp	 50	 49	 0	 i	 2	 1	 1074.19	 0.53	 0.56	 
bmem_snacks_120	 0	 2	 02	 1	 14	 5.602931e+01	 ChocolateParaMilk3.bmp	 GumiWine2.bmp	 46	 53	 1	 u	 2	 1	 662.96	 2.67	 0.20	 
bmem_snacks_120	 0	 2	 02	 1	 15	 6.101834e+01	 Smarties.bmp	 Twist.bmp	 47	 54	 0	 u	 2	 0	 1073.93	 1.64	 0.18	 
bmem_snacks_120	 0	 2	 02	 1	 16	 6.902723e+01	 ClickXLwhite4.bmp	 KinderBuenoWhite2.bmp	 16	 15	 1	 i	 1	 0	 969.05	 6.02	 6.13	 
bmem_snacks_120	 0	 2	 02	 1	 17	 7.401620e+01	 GumiWine2.bmp	 Twist.bmp	 53	 54	 0	 u	 2	 0	 1180.08	 0.20	 0.18	 
bmem_snacks_120	 0	 2	 02	 1	 18	 8.202523e+01	 CrunchShokoVanil.bmp	 Kitkat.bmp	 50	 43	 0	 i	 2	 1	 851.04	 0.53	 3.33	 
bmem_snacks_120	 0	 2	 02	 1	 19	 8.601291e+01	 ClickBisquit2.bmp	 KinderBuenoWhite2.bmp	 8	 15	 1	 u	 1	 1	 1191.36	 8.07	 6.13	 
bmem_snacks_120	 0	 2	 02	 1	 20	 8.901627e+01	 HispusimShatiah.bmp	 GumiSnakes3.bmp	 44	 49	 0	 i	 2	 1	 1020.00	 2.78	 0.56	 
bmem_snacks_120	 0	 2	 02	 1	 21	 9.201970e+01	 Twist.bmp	 Tortit.bmp	 54	 52	 1	 u	 2	 1	 1168.56	 0.18	 0.20	 
bmem_snacks_120	 0	 2	 02	 1	 22	 9.502300e+01	 Kitkat.bmp	 Tortit.bmp	 43	 52	 1	 u	 2	 1	 1077.27	 3.33	 0.20	 
bmem_snacks_120	 0	 2	 02	 1	 23	 9.902754e+01	 DoritosNatural.bmp	 ClickBisquit2.bmp	 13	 8	 0	 u	 1	 0	 832.73	 6.93	 8.07	 
bmem_snacks_120	 0	 2	 02	 1	 24	 1.030154e+02	 Taami.bmp	 WerthersOriginal.bmp	 6	 55	 1	 u	 3	 1	 876.87	 8.11	 0.18	 
bmem_snacks_120	 0	 2	 02	 1	 25	 1.090220e+02	 ChocolateParaMilk3.bmp	 Smarties.bmp	 46	 47	 1	 u	 2	 1	 806.23	 2.67	 1.64	 
bmem_snacks_120	 0	 2	 02	 1	 26	 1.190166e+02	 BisliPizza3.bmp	 KinderJoy.bmp	 22	 21	 0	 u	 4	 0	 795.68	 5.91	 5.93	 
bmem_snacks_120	 0	 2	 02	 1	 27	 1.220199e+02	 ClickXLwhite4.bmp	 BambaNugat.bmp	 16	 12	 1	 i	 1	 0	 696.36	 6.02	 7.00	 
bmem_snacks_120	 0	 2	 02	 1	 28	 1.270256e+02	 ChocolateParaSucariotKoftzot2.bmp	 Bounty.bmp	 7	 14	 0	 u	 1	 0	 834.68	 8.09	 6.91	 
bmem_snacks_120	 0	 2	 02	 1	 29	 1.360190e+02	 BambaSweet.bmp	 Smarties.bmp	 51	 47	 1	 u	 2	 1	 993.32	 0.27	 1.64	 
bmem_snacks_120	 0	 2	 02	 1	 30	 1.450291e+02	 BambaSweet.bmp	 GumiWine2.bmp	 51	 53	 1	 u	 2	 1	 1095.17	 0.27	 0.20	 
bmem_snacks_120	 0	 2	 02	 1	 31	 1.490168e+02	 ChocolateParaMilk3.bmp	 KashitSour.bmp	 46	 45	 1	 u	 2	 1	 707.44	 2.67	 2.73	 
bmem_snacks_120	 0	 2	 02	 1	 32	 1.570259e+02	 KinderBuenoWhite2.bmp	 Bounty.bmp	 15	 14	 0	 u	 1	 0	 1026.38	 6.13	 6.91	 
bmem_snacks_120	 0	 2	 02	 1	 33	 1.640171e+02	 Bamba.bmp	 ChocolateParaSucariotKoftzot2.bmp	 9	 7	 1	 u	 1	 1	 755.17	 8.02	 8.09	 
bmem_snacks_120	 0	 2	 02	 1	 34	 1.670204e+02	 Dubonim.bmp	 Bounty.bmp	 10	 14	 0	 u	 1	 0	 727.90	 7.02	 6.91	 
bmem_snacks_120	 0	 2	 02	 1	 35	 1.700237e+02	 Twix.bmp	 HappyHippo.bmp	 19	 20	 0	 u	 4	 0	 1108.60	 5.96	 5.96	 
bmem_snacks_120	 0	 2	 02	 1	 36	 1.760138e+02	 Kitkat.bmp	 Smarties.bmp	 43	 47	 1	 u	 2	 1	 646.43	 3.33	 1.64	 
bmem_snacks_120	 0	 2	 02	 1	 37	 1.810194e+02	 BambaNugat.bmp	 Bounty.bmp	 12	 14	 0	 u	 1	 0	 528.88	 7.00	 6.91	 
bmem_snacks_120	 0	 2	 02	 1	 38	 1.850239e+02	 ClickXLwhite4.bmp	 Dubonim.bmp	 16	 10	 1	 i	 1	 0	 620.39	 6.02	 7.02	 
bmem_snacks_120	 0	 2	 02	 1	 39	 1.900126e+02	 BabyDoll.bmp	 WerthersOriginal.bmp	 5	 55	 1	 u	 3	 1	 855.66	 8.13	 0.18	 
bmem_snacks_120	 0	 2	 02	 1	 40	 1.930163e+02	 HispusimShatiah.bmp	 Kitkat.bmp	 44	 43	 0	 i	 2	 1	 635.99	 2.78	 3.33	 
bmem_snacks_120	 0	 2	 02	 1	 41	 1.960196e+02	 Popco.bmp	 Smarties.bmp	 48	 47	 1	 u	 2	 1	 696.69	 1.64	 1.64	 
bmem_snacks_120	 0	 2	 02	 1	 42	 2.040286e+02	 ChocolateParaCookies5.bmp	 ClickXLwhite4.bmp	 18	 16	 0	 u	 1	 0	 759.73	 5.98	 6.02	 
bmem_snacks_120	 0	 2	 02	 1	 43	 2.090174e+02	 Kitkat.bmp	 KashitSour.bmp	 43	 45	 1	 u	 2	 1	 730.85	 3.33	 2.73	 
bmem_snacks_120	 0	 2	 02	 1	 44	 2.130219e+02	 BambaNugat.bmp	 BisliOnion.bmp	 12	 17	 0	 i	 1	 1	 862.36	 7.00	 6.00	 
bmem_snacks_120	 0	 2	 02	 1	 45	 2.160253e+02	 ChocolateParaCookies5.bmp	 Bounty.bmp	 18	 14	 0	 u	 1	 0	 898.93	 5.98	 6.91	 
bmem_snacks_120	 0	 2	 02	 1	 46	 2.190286e+02	 ChocolateParaCookies5.bmp	 Apropo.bmp	 18	 11	 0	 i	 1	 1	 679.66	 5.98	 7.02	 
bmem_snacks_120	 0	 2	 02	 1	 47	 2.230164e+02	 BisliOnion.bmp	 Dubonim.bmp	 17	 10	 1	 i	 1	 0	 1099.83	 6.00	 7.02	 
bmem_snacks_120	 0	 2	 02	 1	 48	 2.260198e+02	 CrunchBisquitWhite2.bmp	 Mekupelet.bmp	 39	 40	 0	 u	 5	 0	 1128.49	 3.82	 3.78	 
bmem_snacks_120	 0	 2	 02	 1	 49	 2.310255e+02	 Popco.bmp	 HispusimShatiah.bmp	 48	 44	 1	 u	 2	 1	 690.80	 1.64	 2.78	 
bmem_snacks_120	 0	 2	 02	 1	 50	 2.340288e+02	 BambaNugat.bmp	 ClickBisquit2.bmp	 12	 8	 0	 u	 1	 0	 615.48	 7.00	 8.07	 
bmem_snacks_120	 0	 2	 02	 1	 51	 2.370155e+02	 SkittlesSour4.bmp	 Hit.bmp	 42	 41	 0	 i	 5	 1	 820.77	 3.76	 3.78	 
bmem_snacks_120	 0	 2	 02	 1	 52	 2.410200e+02	 CrunchShokoVanil.bmp	 ChocolateParaMilk3.bmp	 50	 46	 0	 i	 2	 1	 576.30	 0.53	 2.67	 
bmem_snacks_120	 0	 2	 02	 1	 53	 2.440234e+02	 CrunchShokoVanil.bmp	 Twist.bmp	 50	 54	 0	 i	 2	 1	 748.91	 0.53	 0.18	 
bmem_snacks_120	 0	 2	 02	 1	 54	 2.470267e+02	 DoritosNatural.bmp	 ClickXLwhite4.bmp	 13	 16	 0	 u	 1	 0	 753.57	 6.93	 6.02	 
bmem_snacks_120	 0	 2	 02	 1	 55	 2.510145e+02	 BisliOnion.bmp	 ChocolateParaCookies5.bmp	 17	 18	 1	 u	 1	 1	 645.84	 6.00	 5.98	 
bmem_snacks_120	 0	 2	 02	 1	 56	 2.640290e+02	 GumiSnakes3.bmp	 GumiWine2.bmp	 49	 53	 1	 i	 2	 0	 847.22	 0.56	 0.20	 
bmem_snacks_120	 0	 2	 02	 1	 57	 2.680169e+02	 BambaSweet.bmp	 CrunchShokoVanil.bmp	 51	 50	 1	 u	 2	 1	 1371.36	 0.27	 0.53	 
bmem_snacks_120	 0	 2	 02	 1	 58	 2.720213e+02	 BambaSweet.bmp	 HispusimShatiah.bmp	 51	 44	 1	 u	 2	 1	 894.92	 0.27	 2.78	 
bmem_snacks_120	 0	 2	 02	 1	 59	 2.760259e+02	 Bamba.bmp	 KinderBuenoWhite2.bmp	 9	 15	 1	 u	 1	 1	 642.40	 8.02	 6.13	 
bmem_snacks_120	 0	 2	 02	 1	 60	 2.850193e+02	 KashitSour.bmp	 GumiSnakes3.bmp	 45	 49	 0	 i	 2	 1	 841.00	 2.73	 0.56	 
bmem_snacks_120	 0	 2	 02	 1	 61	 2.890238e+02	 BisliOnion.bmp	 ChocolateParaSucariotKoftzot2.bmp	 17	 7	 1	 u	 1	 1	 708.52	 6.00	 8.09	 
bmem_snacks_120	 0	 2	 02	 1	 62	 2.920271e+02	 Smarties.bmp	 GumiSnakes3.bmp	 47	 49	 0	 i	 2	 1	 809.18	 1.64	 0.56	 
bmem_snacks_120	 0	 2	 02	 1	 63	 2.960149e+02	 KinderBuenoWhite2.bmp	 Apropo.bmp	 15	 11	 0	 i	 1	 1	 581.35	 6.13	 7.02	 
bmem_snacks_120	 0	 2	 02	 1	 64	 3.010206e+02	 Dubonim.bmp	 Apropo.bmp	 10	 11	 0	 u	 1	 0	 967.69	 7.02	 7.02	 
bmem_snacks_120	 0	 2	 02	 1	 65	 3.060261e+02	 ClickXLwhite4.bmp	 ChocolateParaSucariotKoftzot2.bmp	 16	 7	 1	 i	 1	 0	 770.18	 6.02	 8.09	 
bmem_snacks_120	 0	 2	 02	 1	 66	 3.140184e+02	 Twist.bmp	 KashitSour.bmp	 54	 45	 1	 i	 2	 0	 929.85	 0.18	 2.73	 
bmem_snacks_120	 0	 2	 02	 1	 67	 3.170217e+02	 KinderBuenoWhite2.bmp	 BisliOnion.bmp	 15	 17	 0	 i	 1	 1	 798.52	 6.13	 6.00	 
bmem_snacks_120	 0	 2	 02	 1	 68	 3.200252e+02	 Tortit.bmp	 GumiSnakes3.bmp	 52	 49	 0	 i	 2	 1	 715.11	 0.20	 0.56	 
bmem_snacks_120	 0	 2	 02	 1	 69	 3.280174e+02	 ClickBisquit2.bmp	 ChocolateParaCookies5.bmp	 8	 18	 1	 u	 1	 1	 906.88	 8.07	 5.98	 
bmem_snacks_120	 0	 2	 02	 1	 70	 3.310207e+02	 HispusimShatiah.bmp	 ChocolateParaMilk3.bmp	 44	 46	 0	 i	 2	 1	 791.53	 2.78	 2.67	 
bmem_snacks_120	 0	 2	 02	 1	 71	 3.440187e+02	 BambaSweet.bmp	 Tortit.bmp	 51	 52	 1	 u	 2	 1	 1057.59	 0.27	 0.20	 
bmem_snacks_120	 0	 2	 02	 1	 72	 3.510266e+02	 DoritosNatural.bmp	 Bounty.bmp	 13	 14	 0	 u	 1	 0	 657.66	 6.93	 6.91	 
bmem_snacks_120	 0	 2	 02	 1	 73	 3.560155e+02	 BisliPizza3.bmp	 KinderJoy.bmp	 22	 21	 0	 u	 4	 0	 692.77	 5.91	 5.93	 
bmem_snacks_120	 0	 2	 02	 1	 74	 3.600199e+02	 ClickBisquit2.bmp	 ChocolateParaSucariotKoftzot2.bmp	 8	 7	 1	 i	 1	 0	 968.33	 8.07	 8.09	 
bmem_snacks_120	 0	 2	 02	 1	 75	 3.640244e+02	 CrunchBisquitWhite2.bmp	 Mekupelet.bmp	 39	 40	 0	 u	 5	 0	 955.84	 3.82	 3.78	 
bmem_snacks_120	 0	 2	 02	 1	 76	 3.710156e+02	 DoritosNatural.bmp	 BisliOnion.bmp	 13	 17	 0	 i	 1	 1	 996.65	 6.93	 6.00	 
bmem_snacks_120	 0	 2	 02	 1	 77	 3.780235e+02	 HispusimShatiah.bmp	 Twist.bmp	 44	 54	 0	 i	 2	 1	 868.80	 2.78	 0.18	 
bmem_snacks_120	 0	 2	 02	 1	 78	 3.820279e+02	 Bamba.bmp	 DoritosNatural.bmp	 9	 13	 1	 u	 1	 1	 792.37	 8.02	 6.93	 
bmem_snacks_120	 0	 2	 02	 1	 79	 3.860157e+02	 Dubonim.bmp	 Bamba.bmp	 10	 9	 0	 u	 1	 0	 740.58	 7.02	 8.02	 
bmem_snacks_120	 0	 2	 02	 1	 80	 3.950258e+02	 Popco.bmp	 GumiWine2.bmp	 48	 53	 1	 u	 2	 1	 882.49	 1.64	 0.20	 
bmem_snacks_120	 0	 2	 02	 1	 81	 3.990133e+02	 ChocolateParaCookies5.bmp	 Bamba.bmp	 18	 9	 0	 i	 1	 1	 1175.01	 5.98	 8.02	 
bmem_snacks_120	 0	 2	 02	 1	 82	 4.090249e+02	 HappyHippo.bmp	 Twix.bmp	 20	 19	 1	 i	 4	 0	 1155.40	 5.96	 5.96	 
bmem_snacks_120	 0	 2	 02	 1	 83	 4.130293e+02	 Popco.bmp	 CrunchShokoVanil.bmp	 48	 50	 1	 u	 2	 1	 702.97	 1.64	 0.53	 
bmem_snacks_120	 0	 2	 02	 1	 84	 4.180183e+02	 Apropo.bmp	 DoritosNatural.bmp	 11	 13	 1	 u	 1	 1	 921.99	 7.02	 6.93	 
