subjectID	scanner	order	block	run	trial	onsettime	ImageLeft	ImageRight	bidIndexLeft	bidIndexRight	IsleftGo	Response	PairType	Outcome	RT	bidLeft	bidRight	
bmem_snacks_130	 0	 2	 01	 1	 1	 2.018748e+00	 GumiSnakes3.bmp	 Mentos.bmp	 52	 46	 0	 i	 2	 1	 723.44	 3.22	 3.76	 
bmem_snacks_130	 0	 2	 01	 1	 2	 8.008721e+00	 Mentos.bmp	 KashitSour.bmp	 46	 50	 1	 u	 2	 1	 885.64	 3.76	 3.24	 
bmem_snacks_130	 0	 2	 01	 1	 3	 1.101214e+01	 ChocolateParaMarir2.bmp	 Mentos.bmp	 44	 46	 0	 i	 2	 1	 690.04	 3.78	 3.76	 
bmem_snacks_130	 0	 2	 01	 1	 4	 1.800308e+01	 BabyDoll.bmp	 GumiSnakes3.bmp	 48	 52	 1	 u	 2	 1	 1395.11	 3.31	 3.22	 
bmem_snacks_130	 0	 2	 01	 1	 5	 2.100668e+01	 ClickXLbrown4.bmp	 ChocolateParaCookies5.bmp	 14	 10	 1	 u	 1	 1	 943.51	 6.49	 7.02	 
bmem_snacks_130	 0	 2	 01	 1	 6	 2.601229e+01	 SkittlesSour4.bmp	 Dubonim.bmp	 17	 12	 1	 u	 1	 1	 1217.90	 6.44	 6.98	 
bmem_snacks_130	 0	 2	 01	 1	 7	 3.101795e+01	 Halva2.bmp	 Taami.bmp	 53	 54	 0	 i	 2	 1	 1236.24	 3.18	 2.78	 
bmem_snacks_130	 0	 2	 01	 1	 8	 3.400461e+01	 Kitkat.bmp	 PesekZman.bmp	 15	 8	 0	 i	 1	 1	 865.63	 6.47	 8.02	 
bmem_snacks_130	 0	 2	 01	 1	 9	 3.800910e+01	 HappyHippo.bmp	 ClickXLwhite4.bmp	 56	 5	 0	 i	 3	 1	 861.09	 2.71	 8.51	 
bmem_snacks_130	 0	 2	 01	 1	 10	 4.102915e+01	 Taami.bmp	 KinderJoy.bmp	 54	 45	 1	 u	 2	 1	 745.04	 2.78	 3.76	 
bmem_snacks_130	 0	 2	 01	 1	 11	 4.501696e+01	 PesekZman.bmp	 SkittlesFruits2.bmp	 8	 18	 1	 u	 1	 1	 709.24	 8.02	 6.38	 
bmem_snacks_130	 0	 2	 01	 1	 12	 5.000585e+01	 Dubonim.bmp	 GumiWine2.bmp	 12	 11	 0	 i	 1	 1	 800.36	 6.98	 6.98	 
bmem_snacks_130	 0	 2	 01	 1	 13	 5.300927e+01	 ChocolateParaSucariotKoftzot2.bmp	 Kitkat.bmp	 16	 15	 1	 u	 1	 1	 836.92	 6.47	 6.47	 
bmem_snacks_130	 0	 2	 01	 1	 14	 5.601258e+01	 SkittlesFruits2.bmp	 SkittlesSour4.bmp	 18	 17	 0	 u	 1	 0	 865.63	 6.38	 6.44	 
bmem_snacks_130	 0	 2	 01	 1	 15	 6.101819e+01	 BisliGrill.bmp	 KashitSour.bmp	 43	 50	 1	 u	 2	 1	 1163.99	 3.80	 3.24	 
bmem_snacks_130	 0	 2	 01	 1	 16	 6.901049e+01	 GumiWine2.bmp	 SkittlesFruits2.bmp	 11	 18	 1	 i	 1	 0	 723.70	 6.98	 6.38	 
bmem_snacks_130	 0	 2	 01	 1	 17	 7.401617e+01	 KashitSour.bmp	 BabyDoll.bmp	 50	 48	 0	 i	 2	 1	 726.02	 3.24	 3.31	 
bmem_snacks_130	 0	 2	 01	 1	 18	 8.200840e+01	 ChocolateParaMarir2.bmp	 BabyDoll.bmp	 44	 48	 0	 i	 2	 1	 861.81	 3.78	 3.31	 
bmem_snacks_130	 0	 2	 01	 1	 19	 8.601285e+01	 Popco.bmp	 Twist.bmp	 39	 40	 0	 i	 5	 1	 897.34	 4.18	 3.82	 
bmem_snacks_130	 0	 2	 01	 1	 20	 8.901627e+01	 Cheetos.bmp	 HappyHippo.bmp	 6	 56	 1	 u	 3	 1	 1045.92	 8.07	 2.71	 
bmem_snacks_130	 0	 2	 01	 1	 21	 9.200295e+01	 SkittlesFruits2.bmp	 ChocolateParaSucariotKoftzot2.bmp	 18	 16	 0	 i	 1	 1	 1003.25	 6.38	 6.47	 
bmem_snacks_130	 0	 2	 01	 1	 22	 9.500627e+01	 Dubonim.bmp	 PesekZman.bmp	 12	 8	 0	 i	 1	 1	 831.93	 6.98	 8.02	 
bmem_snacks_130	 0	 2	 01	 1	 23	 9.901075e+01	 TapuchipsCrunch.bmp	 KinderBuenoWhite2.bmp	 41	 42	 1	 i	 5	 0	 963.45	 3.82	 3.80	 
bmem_snacks_130	 0	 2	 01	 1	 24	 1.030152e+02	 Kitkat.bmp	 SkittlesSour4.bmp	 15	 17	 0	 i	 1	 1	 1262.95	 6.47	 6.44	 
bmem_snacks_130	 0	 2	 01	 1	 25	 1.090053e+02	 BabyDoll.bmp	 Halva2.bmp	 48	 53	 1	 i	 2	 0	 920.90	 3.31	 3.18	 
bmem_snacks_130	 0	 2	 01	 1	 26	 1.190166e+02	 Bamba.bmp	 Taami.bmp	 47	 54	 0	 i	 2	 1	 797.58	 3.76	 2.78	 
bmem_snacks_130	 0	 2	 01	 1	 27	 1.220032e+02	 Taami.bmp	 ChocolateParaMarir2.bmp	 54	 44	 1	 u	 2	 1	 834.98	 2.78	 3.78	 
bmem_snacks_130	 0	 2	 01	 1	 28	 1.270088e+02	 Smarties.bmp	 KinderJoy.bmp	 49	 45	 1	 u	 2	 1	 1157.37	 3.29	 3.76	 
bmem_snacks_130	 0	 2	 01	 1	 29	 1.360020e+02	 KinderJoy.bmp	 BabyDoll.bmp	 45	 48	 0	 u	 2	 0	 932.20	 3.76	 3.31	 
bmem_snacks_130	 0	 2	 01	 1	 30	 1.450124e+02	 Kitkat.bmp	 GumiWine2.bmp	 15	 11	 0	 u	 1	 0	 1257.82	 6.47	 6.98	 
bmem_snacks_130	 0	 2	 01	 1	 31	 1.490169e+02	 Dubonim.bmp	 CrunchBisquitBrown3.bmp	 12	 9	 0	 i	 1	 1	 1061.32	 6.98	 7.40	 
bmem_snacks_130	 0	 2	 01	 1	 32	 1.570091e+02	 Dubonim.bmp	 ChocolateParaSucariotKoftzot2.bmp	 12	 16	 0	 i	 1	 1	 989.10	 6.98	 6.47	 
bmem_snacks_130	 0	 2	 01	 1	 33	 1.640169e+02	 Halva2.bmp	 BisliGrill.bmp	 53	 43	 0	 i	 2	 1	 893.25	 3.18	 3.80	 
bmem_snacks_130	 0	 2	 01	 1	 34	 1.670037e+02	 KinderJoy.bmp	 Mentos.bmp	 45	 46	 0	 i	 2	 1	 762.53	 3.76	 3.76	 
bmem_snacks_130	 0	 2	 01	 1	 35	 1.700070e+02	 Smarties.bmp	 Halva2.bmp	 49	 53	 1	 u	 2	 1	 959.16	 3.29	 3.18	 
bmem_snacks_130	 0	 2	 01	 1	 36	 1.760138e+02	 Popco.bmp	 Twist.bmp	 39	 40	 0	 i	 5	 1	 912.42	 4.18	 3.82	 
bmem_snacks_130	 0	 2	 01	 1	 37	 1.810024e+02	 GumiSnakes3.bmp	 Taami.bmp	 52	 54	 0	 i	 2	 1	 755.84	 3.22	 2.78	 
bmem_snacks_130	 0	 2	 01	 1	 38	 1.850073e+02	 ChocolateParaSucariotKoftzot2.bmp	 ChocolateParaCookies5.bmp	 16	 10	 1	 i	 1	 0	 910.92	 6.47	 7.02	 
bmem_snacks_130	 0	 2	 01	 1	 39	 1.900128e+02	 Bounty.bmp	 Cheetos.bmp	 55	 6	 0	 i	 3	 1	 937.40	 2.76	 8.07	 
bmem_snacks_130	 0	 2	 01	 1	 40	 1.930161e+02	 KinderBuenoWhite2.bmp	 TapuchipsCrunch.bmp	 42	 41	 0	 u	 5	 0	 870.08	 3.80	 3.82	 
bmem_snacks_130	 0	 2	 01	 1	 41	 1.960362e+02	 SkittlesSour4.bmp	 Hit.bmp	 17	 13	 1	 i	 1	 0	 953.98	 6.44	 6.96	 
bmem_snacks_130	 0	 2	 01	 1	 42	 2.040118e+02	 BisliGrill.bmp	 GumiSnakes3.bmp	 43	 52	 1	 i	 2	 0	 826.40	 3.80	 3.22	 
bmem_snacks_130	 0	 2	 01	 1	 43	 2.090174e+02	 Taami.bmp	 KashitSour.bmp	 54	 50	 1	 u	 2	 1	 828.77	 2.78	 3.24	 
bmem_snacks_130	 0	 2	 01	 1	 44	 2.130052e+02	 Mentos.bmp	 Halva2.bmp	 46	 53	 1	 u	 2	 1	 880.96	 3.76	 3.18	 
bmem_snacks_130	 0	 2	 01	 1	 45	 2.160419e+02	 Bamba.bmp	 Tapuchips.bmp	 47	 51	 0	 x	 2	 999	 999000.00	 3.76	 3.24	 
bmem_snacks_130	 0	 2	 01	 1	 46	 2.190120e+02	 ClickXLbrown4.bmp	 ClickBlackWhite3.bmp	 14	 7	 1	 i	 1	 0	 818.24	 6.49	 8.04	 
bmem_snacks_130	 0	 2	 01	 1	 47	 2.230165e+02	 Halva2.bmp	 Tapuchips.bmp	 53	 51	 0	 u	 2	 0	 765.75	 3.18	 3.24	 
bmem_snacks_130	 0	 2	 01	 1	 48	 2.260028e+02	 GumiWine2.bmp	 ClickBlackWhite3.bmp	 11	 7	 1	 i	 1	 0	 771.43	 6.98	 8.04	 
bmem_snacks_130	 0	 2	 01	 1	 49	 2.310088e+02	 Tapuchips.bmp	 KinderJoy.bmp	 51	 45	 1	 u	 2	 1	 645.43	 3.24	 3.76	 
bmem_snacks_130	 0	 2	 01	 1	 50	 2.340121e+02	 Bamba.bmp	 BabyDoll.bmp	 47	 48	 0	 u	 2	 0	 778.09	 3.76	 3.31	 
bmem_snacks_130	 0	 2	 01	 1	 51	 2.370155e+02	 KifkefMaklot2.bmp	 Keifli.bmp	 20	 19	 1	 u	 4	 1	 878.69	 5.91	 5.93	 
bmem_snacks_130	 0	 2	 01	 1	 52	 2.410030e+02	 Tapuchips.bmp	 GumiSnakes3.bmp	 51	 52	 1	 i	 2	 0	 995.22	 3.24	 3.22	 
bmem_snacks_130	 0	 2	 01	 1	 53	 2.440067e+02	 ChocolateParaCookies5.bmp	 CrunchBisquitBrown3.bmp	 10	 9	 0	 i	 1	 1	 943.52	 7.02	 7.40	 
bmem_snacks_130	 0	 2	 01	 1	 54	 2.470100e+02	 ClickXLwhite4.bmp	 Bounty.bmp	 5	 55	 1	 u	 3	 1	 876.18	 8.51	 2.76	 
bmem_snacks_130	 0	 2	 01	 1	 55	 2.510145e+02	 SkittlesFruits2.bmp	 ClickXLbrown4.bmp	 18	 14	 0	 i	 1	 1	 831.72	 6.38	 6.49	 
bmem_snacks_130	 0	 2	 01	 1	 56	 2.640124e+02	 Kitkat.bmp	 ClickXLbrown4.bmp	 15	 14	 0	 i	 1	 1	 833.77	 6.47	 6.49	 
bmem_snacks_130	 0	 2	 01	 1	 57	 2.680169e+02	 Smarties.bmp	 KashitSour.bmp	 49	 50	 1	 u	 2	 1	 1053.29	 3.29	 3.24	 
bmem_snacks_130	 0	 2	 01	 1	 58	 2.720046e+02	 BagaleShtuhim.bmp	 Twix.bmp	 22	 21	 0	 i	 4	 1	 953.55	 5.87	 5.91	 
bmem_snacks_130	 0	 2	 01	 1	 59	 2.760092e+02	 Hit.bmp	 ClickXLbrown4.bmp	 13	 14	 0	 i	 1	 1	 628.98	 6.96	 6.49	 
bmem_snacks_130	 0	 2	 01	 1	 60	 2.850024e+02	 ChocolateParaCookies5.bmp	 SkittlesSour4.bmp	 10	 17	 0	 u	 1	 0	 595.75	 7.02	 6.44	 
bmem_snacks_130	 0	 2	 01	 1	 61	 2.890071e+02	 Smarties.bmp	 GumiSnakes3.bmp	 49	 52	 1	 u	 2	 1	 975.18	 3.29	 3.22	 
bmem_snacks_130	 0	 2	 01	 1	 62	 2.920104e+02	 Hit.bmp	 CrunchBisquitBrown3.bmp	 13	 9	 0	 i	 1	 1	 755.78	 6.96	 7.40	 
bmem_snacks_130	 0	 2	 01	 1	 63	 2.960149e+02	 GumiWine2.bmp	 Hit.bmp	 11	 13	 1	 i	 1	 0	 847.34	 6.98	 6.96	 
bmem_snacks_130	 0	 2	 01	 1	 64	 3.010040e+02	 Kitkat.bmp	 CrunchBisquitBrown3.bmp	 15	 9	 0	 i	 1	 1	 754.16	 6.47	 7.40	 
bmem_snacks_130	 0	 2	 01	 1	 65	 3.060095e+02	 KifkefMaklot2.bmp	 Keifli.bmp	 20	 19	 1	 u	 4	 1	 756.68	 5.91	 5.93	 
bmem_snacks_130	 0	 2	 01	 1	 66	 3.140015e+02	 BisliGrill.bmp	 Bamba.bmp	 43	 47	 1	 i	 2	 0	 620.70	 3.80	 3.76	 
bmem_snacks_130	 0	 2	 01	 1	 67	 3.170051e+02	 PesekZman.bmp	 ClickBlackWhite3.bmp	 8	 7	 1	 u	 1	 1	 1345.14	 8.02	 8.04	 
bmem_snacks_130	 0	 2	 01	 1	 68	 3.200085e+02	 ChocolateParaMarir2.bmp	 Smarties.bmp	 44	 49	 0	 i	 2	 1	 1109.74	 3.78	 3.29	 
bmem_snacks_130	 0	 2	 01	 1	 69	 3.280174e+02	 Smarties.bmp	 Bamba.bmp	 49	 47	 1	 u	 2	 1	 804.79	 3.29	 3.76	 
bmem_snacks_130	 0	 2	 01	 1	 70	 3.310041e+02	 KinderJoy.bmp	 BisliGrill.bmp	 45	 43	 0	 i	 2	 1	 930.08	 3.76	 3.80	 
bmem_snacks_130	 0	 2	 01	 1	 71	 3.440017e+02	 BisliGrill.bmp	 ChocolateParaMarir2.bmp	 43	 44	 1	 u	 2	 1	 732.48	 3.80	 3.78	 
bmem_snacks_130	 0	 2	 01	 1	 72	 3.510099e+02	 PesekZman.bmp	 ChocolateParaCookies5.bmp	 8	 10	 1	 i	 1	 0	 636.28	 8.02	 7.02	 
bmem_snacks_130	 0	 2	 01	 1	 73	 3.560155e+02	 KashitSour.bmp	 Tapuchips.bmp	 50	 51	 0	 i	 2	 1	 1166.66	 3.24	 3.24	 
bmem_snacks_130	 0	 2	 01	 1	 74	 3.600033e+02	 ChocolateParaSucariotKoftzot2.bmp	 Hit.bmp	 16	 13	 1	 u	 1	 1	 810.86	 6.47	 6.96	 
bmem_snacks_130	 0	 2	 01	 1	 75	 3.640077e+02	 Twix.bmp	 BagaleShtuhim.bmp	 21	 22	 1	 u	 4	 1	 910.45	 5.91	 5.87	 
bmem_snacks_130	 0	 2	 01	 1	 76	 3.710156e+02	 ClickXLbrown4.bmp	 Dubonim.bmp	 14	 12	 1	 u	 1	 1	 710.61	 6.49	 6.98	 
bmem_snacks_130	 0	 2	 01	 1	 77	 3.780068e+02	 Hit.bmp	 PesekZman.bmp	 13	 8	 0	 i	 1	 1	 911.41	 6.96	 8.02	 
bmem_snacks_130	 0	 2	 01	 1	 78	 3.820113e+02	 CrunchBisquitBrown3.bmp	 ClickBlackWhite3.bmp	 9	 7	 1	 u	 1	 1	 714.92	 7.40	 8.04	 
bmem_snacks_130	 0	 2	 01	 1	 79	 3.860157e+02	 Bamba.bmp	 Mentos.bmp	 47	 46	 0	 i	 2	 1	 838.48	 3.76	 3.76	 
bmem_snacks_130	 0	 2	 01	 1	 80	 3.950091e+02	 Tapuchips.bmp	 ChocolateParaMarir2.bmp	 51	 44	 1	 u	 2	 1	 821.10	 3.24	 3.78	 
bmem_snacks_130	 0	 2	 01	 1	 81	 3.990136e+02	 GumiWine2.bmp	 ChocolateParaCookies5.bmp	 11	 10	 1	 i	 1	 0	 560.61	 6.98	 7.02	 
bmem_snacks_130	 0	 2	 01	 1	 82	 4.090082e+02	 ClickBlackWhite3.bmp	 SkittlesSour4.bmp	 7	 17	 0	 u	 1	 0	 701.99	 8.04	 6.44	 
bmem_snacks_130	 0	 2	 01	 1	 83	 4.130126e+02	 CrunchBisquitBrown3.bmp	 SkittlesFruits2.bmp	 9	 18	 1	 u	 1	 1	 569.58	 7.40	 6.38	 
bmem_snacks_130	 0	 2	 01	 1	 84	 4.180183e+02	 ClickBlackWhite3.bmp	 ChocolateParaSucariotKoftzot2.bmp	 7	 16	 0	 i	 1	 1	 563.88	 8.04	 6.47	 
