subjectID	scanner	order	block	run	trial	onsettime	ImageLeft	ImageRight	bidIndexLeft	bidIndexRight	IsleftGo	Response	PairType	Outcome	RT	bidLeft	bidRight	
bmem_snacks_127	 0	 1	 04	 1	 1	 2.018772e+00	 Popco.bmp	 BisliOnion.bmp	 44	 54	 1	 i	 2	 0	 570.40	 1.24	 0.22	 
bmem_snacks_127	 0	 1	 04	 1	 2	 8.025607e+00	 DoritosNatural.bmp	 ClickBalls5.bmp	 15	 14	 1	 i	 1	 0	 1083.55	 5.91	 5.96	 
bmem_snacks_127	 0	 1	 04	 1	 3	 1.101202e+01	 BabyDoll.bmp	 ChocolateParaSucariotKoftzot2.bmp	 52	 43	 1	 i	 2	 0	 737.14	 0.29	 1.44	 
bmem_snacks_127	 0	 1	 04	 1	 4	 1.802005e+01	 KinderJoy.bmp	 ClickBlackWhite3.bmp	 13	 16	 1	 i	 1	 0	 785.10	 6.00	 5.89	 
bmem_snacks_127	 0	 1	 04	 1	 5	 2.102344e+01	 Kitkat.bmp	 KashitSour.bmp	 5	 55	 1	 u	 3	 1	 645.73	 7.22	 0.20	 
bmem_snacks_127	 0	 1	 04	 1	 6	 2.601204e+01	 WerthersOriginal.bmp	 Popco.bmp	 49	 44	 0	 i	 2	 1	 825.12	 0.58	 1.24	 
bmem_snacks_127	 0	 1	 04	 1	 7	 3.101796e+01	 ClickXLbrown4.bmp	 Mentos.bmp	 10	 11	 1	 u	 1	 1	 611.20	 6.73	 6.31	 
bmem_snacks_127	 0	 1	 04	 1	 8	 3.402140e+01	 KinderBuenoWhite2.bmp	 KinderJoy.bmp	 8	 13	 0	 u	 1	 0	 647.76	 6.96	 6.00	 
bmem_snacks_127	 0	 1	 04	 1	 9	 3.802590e+01	 BagaleShtuhim.bmp	 ChocolateParaMarir2.bmp	 47	 51	 1	 u	 2	 1	 1035.26	 0.89	 0.33	 
bmem_snacks_127	 0	 1	 04	 1	 10	 4.101223e+01	 Twix.bmp	 ChocolateParaMilk3.bmp	 20	 19	 0	 i	 4	 1	 584.93	 3.98	 4.31	 
bmem_snacks_127	 0	 1	 04	 1	 11	 4.501697e+01	 ChocolateParaSucariotKoftzot2.bmp	 BisliPizza3.bmp	 43	 50	 0	 u	 2	 0	 700.18	 1.44	 0.42	 
bmem_snacks_127	 0	 1	 04	 1	 12	 5.002260e+01	 Bounty.bmp	 ChocolateParaMarir2.bmp	 45	 51	 1	 i	 2	 0	 918.55	 1.11	 0.33	 
bmem_snacks_127	 0	 1	 04	 1	 13	 5.302602e+01	 Tapuchips.bmp	 ChocolateParaCookies5.bmp	 18	 9	 1	 i	 1	 0	 603.14	 4.42	 6.87	 
bmem_snacks_127	 0	 1	 04	 1	 14	 5.601234e+01	 SkittlesFruits2.bmp	 TapuchipsCrunch.bmp	 39	 40	 1	 i	 5	 0	 784.83	 2.11	 1.73	 
bmem_snacks_127	 0	 1	 04	 1	 15	 6.101835e+01	 Bounty.bmp	 BisliOnion.bmp	 45	 54	 1	 i	 2	 0	 554.83	 1.11	 0.22	 
bmem_snacks_127	 0	 1	 04	 1	 16	 6.902731e+01	 ChocolateParaMilk3.bmp	 Twix.bmp	 19	 20	 1	 u	 4	 1	 689.85	 4.31	 3.98	 
bmem_snacks_127	 0	 1	 04	 1	 17	 7.401618e+01	 DoritosNatural.bmp	 KinderBuenoWhite2.bmp	 15	 8	 1	 i	 1	 0	 516.99	 5.91	 6.96	 
bmem_snacks_127	 0	 1	 04	 1	 18	 8.202514e+01	 BabyDoll.bmp	 Shugi.bmp	 52	 46	 1	 i	 2	 0	 692.01	 0.29	 0.93	 
bmem_snacks_127	 0	 1	 04	 1	 19	 8.601301e+01	 Tapuchips.bmp	 BisliGrill.bmp	 18	 17	 1	 i	 1	 0	 800.14	 4.42	 5.38	 
bmem_snacks_127	 0	 1	 04	 1	 20	 8.901638e+01	 BisliOnion.bmp	 BisliPizza3.bmp	 54	 50	 0	 u	 2	 0	 676.77	 0.22	 0.42	 
bmem_snacks_127	 0	 1	 04	 1	 21	 9.201967e+01	 Tapuchips.bmp	 Mentos.bmp	 18	 11	 1	 i	 1	 0	 697.49	 4.42	 6.31	 
bmem_snacks_127	 0	 1	 04	 1	 22	 9.502315e+01	 ClickBlackWhite3.bmp	 ClickXLbrown4.bmp	 16	 10	 0	 i	 1	 1	 590.02	 5.89	 6.73	 
bmem_snacks_127	 0	 1	 04	 1	 23	 9.902758e+01	 ClickBlackWhite3.bmp	 KinderBuenoBrown3.bmp	 16	 7	 0	 i	 1	 1	 545.58	 5.89	 6.96	 
bmem_snacks_127	 0	 1	 04	 1	 24	 1.030153e+02	 TapuchipsCrunch.bmp	 SkittlesFruits2.bmp	 40	 39	 0	 u	 5	 0	 725.85	 1.73	 2.11	 
bmem_snacks_127	 0	 1	 04	 1	 25	 1.090221e+02	 DoritosGrill.bmp	 Smarties.bmp	 53	 48	 1	 u	 2	 1	 847.04	 0.22	 0.71	 
bmem_snacks_127	 0	 1	 04	 1	 26	 1.190167e+02	 Smarties.bmp	 Bounty.bmp	 48	 45	 0	 u	 2	 0	 748.48	 0.71	 1.11	 
bmem_snacks_127	 0	 1	 04	 1	 27	 1.220201e+02	 ChocolateParaCookies5.bmp	 ClickXLwhite4.bmp	 9	 12	 0	 i	 1	 1	 617.08	 6.87	 6.11	 
bmem_snacks_127	 0	 1	 04	 1	 28	 1.270257e+02	 ClickXLwhite4.bmp	 Mentos.bmp	 12	 11	 1	 u	 1	 1	 627.49	 6.11	 6.31	 
bmem_snacks_127	 0	 1	 04	 1	 29	 1.360191e+02	 Mentos.bmp	 DoritosNatural.bmp	 11	 15	 0	 i	 1	 1	 626.08	 6.31	 5.91	 
bmem_snacks_127	 0	 1	 04	 1	 30	 1.450122e+02	 WerthersOriginal.bmp	 BisliPizza3.bmp	 49	 50	 0	 i	 2	 1	 712.95	 0.58	 0.42	 
bmem_snacks_127	 0	 1	 04	 1	 31	 1.490169e+02	 Bounty.bmp	 WerthersOriginal.bmp	 45	 49	 1	 i	 2	 0	 772.28	 1.11	 0.58	 
bmem_snacks_127	 0	 1	 04	 1	 32	 1.570260e+02	 ClickBalls5.bmp	 ClickXLwhite4.bmp	 14	 12	 0	 i	 1	 1	 579.16	 5.96	 6.11	 
bmem_snacks_127	 0	 1	 04	 1	 33	 1.640171e+02	 KinderJoy.bmp	 BisliGrill.bmp	 13	 17	 1	 i	 1	 0	 756.05	 6.00	 5.38	 
bmem_snacks_127	 0	 1	 04	 1	 34	 1.670204e+02	 Bounty.bmp	 Shugi.bmp	 45	 46	 1	 i	 2	 0	 776.72	 1.11	 0.93	 
bmem_snacks_127	 0	 1	 04	 1	 35	 1.700239e+02	 BagaleShtuhim.bmp	 WerthersOriginal.bmp	 47	 49	 1	 u	 2	 1	 765.29	 0.89	 0.58	 
bmem_snacks_127	 0	 1	 04	 1	 36	 1.760139e+02	 BisliGrill.bmp	 KinderBuenoBrown3.bmp	 17	 7	 0	 i	 1	 1	 591.23	 5.38	 6.96	 
bmem_snacks_127	 0	 1	 04	 1	 37	 1.810196e+02	 Smarties.bmp	 BisliPizza3.bmp	 48	 50	 0	 i	 2	 1	 697.60	 0.71	 0.42	 
bmem_snacks_127	 0	 1	 04	 1	 38	 1.850240e+02	 ChocolateParaMarir2.bmp	 DoritosGrill.bmp	 51	 53	 0	 u	 2	 0	 685.13	 0.33	 0.22	 
bmem_snacks_127	 0	 1	 04	 1	 39	 1.900127e+02	 Bamba.bmp	 Halva2.bmp	 41	 42	 0	 u	 5	 0	 664.45	 1.67	 1.60	 
bmem_snacks_127	 0	 1	 04	 1	 40	 1.930163e+02	 ClickBlackWhite3.bmp	 Tapuchips.bmp	 16	 18	 0	 u	 1	 0	 788.87	 5.89	 4.42	 
bmem_snacks_127	 0	 1	 04	 1	 41	 1.960196e+02	 BisliPizza3.bmp	 ChocolateParaMarir2.bmp	 50	 51	 1	 i	 2	 0	 649.52	 0.42	 0.33	 
bmem_snacks_127	 0	 1	 04	 1	 42	 2.040287e+02	 DoritosNatural.bmp	 BisliGrill.bmp	 15	 17	 1	 u	 1	 1	 768.49	 5.91	 5.38	 
bmem_snacks_127	 0	 1	 04	 1	 43	 2.090176e+02	 DoritosNatural.bmp	 ClickBlackWhite3.bmp	 15	 16	 1	 u	 1	 1	 795.57	 5.91	 5.89	 
bmem_snacks_127	 0	 1	 04	 1	 44	 2.130221e+02	 Shugi.bmp	 Popco.bmp	 46	 44	 0	 u	 2	 0	 919.12	 0.93	 1.24	 
bmem_snacks_127	 0	 1	 04	 1	 45	 2.160255e+02	 Tapuchips.bmp	 ClickBalls5.bmp	 18	 14	 1	 i	 1	 0	 595.72	 4.42	 5.96	 
bmem_snacks_127	 0	 1	 04	 1	 46	 2.190119e+02	 Tortit.bmp	 Egozi.bmp	 21	 22	 0	 u	 4	 0	 809.27	 3.93	 3.89	 
bmem_snacks_127	 0	 1	 04	 1	 47	 2.230166e+02	 BabyDoll.bmp	 WerthersOriginal.bmp	 52	 49	 1	 i	 2	 0	 740.59	 0.29	 0.58	 
bmem_snacks_127	 0	 1	 04	 1	 48	 2.260200e+02	 BagaleShtuhim.bmp	 Shugi.bmp	 47	 46	 1	 u	 2	 1	 769.15	 0.89	 0.93	 
bmem_snacks_127	 0	 1	 04	 1	 49	 2.310256e+02	 DoritosGrill.bmp	 ChocolateParaSucariotKoftzot2.bmp	 53	 43	 1	 i	 2	 0	 635.55	 0.22	 1.44	 
bmem_snacks_127	 0	 1	 04	 1	 50	 2.340120e+02	 Tictac.bmp	 PesekZman.bmp	 56	 6	 0	 i	 3	 1	 593.11	 0.16	 7.13	 
bmem_snacks_127	 0	 1	 04	 1	 51	 2.370157e+02	 ClickXLbrown4.bmp	 ClickBalls5.bmp	 10	 14	 1	 i	 1	 0	 733.48	 6.73	 5.96	 
bmem_snacks_127	 0	 1	 04	 1	 52	 2.410201e+02	 ChocolateParaCookies5.bmp	 DoritosNatural.bmp	 9	 15	 0	 i	 1	 1	 585.07	 6.87	 5.91	 
bmem_snacks_127	 0	 1	 04	 1	 53	 2.440235e+02	 Popco.bmp	 Smarties.bmp	 44	 48	 1	 i	 2	 0	 669.69	 1.24	 0.71	 
bmem_snacks_127	 0	 1	 04	 1	 54	 2.470268e+02	 DoritosGrill.bmp	 WerthersOriginal.bmp	 53	 49	 1	 u	 2	 1	 826.36	 0.22	 0.58	 
bmem_snacks_127	 0	 1	 04	 1	 55	 2.510147e+02	 BisliOnion.bmp	 BabyDoll.bmp	 54	 52	 0	 u	 2	 0	 830.49	 0.22	 0.29	 
bmem_snacks_127	 0	 1	 04	 1	 56	 2.640123e+02	 ChocolateParaSucariotKoftzot2.bmp	 Popco.bmp	 43	 44	 0	 u	 2	 0	 768.90	 1.44	 1.24	 
bmem_snacks_127	 0	 1	 04	 1	 57	 2.680171e+02	 BabyDoll.bmp	 ChocolateParaMarir2.bmp	 52	 51	 1	 i	 2	 0	 572.08	 0.29	 0.33	 
bmem_snacks_127	 0	 1	 04	 1	 58	 2.720216e+02	 Tapuchips.bmp	 KinderBuenoWhite2.bmp	 18	 8	 1	 i	 1	 0	 623.59	 4.42	 6.96	 
bmem_snacks_127	 0	 1	 04	 1	 59	 2.760261e+02	 Shugi.bmp	 DoritosGrill.bmp	 46	 53	 0	 u	 2	 0	 867.10	 0.93	 0.22	 
bmem_snacks_127	 0	 1	 04	 1	 60	 2.850194e+02	 Egozi.bmp	 Tortit.bmp	 22	 21	 1	 i	 4	 0	 729.72	 3.89	 3.93	 
bmem_snacks_127	 0	 1	 04	 1	 61	 2.890240e+02	 ChocolateParaMarir2.bmp	 Popco.bmp	 51	 44	 0	 u	 2	 0	 853.20	 0.33	 1.24	 
bmem_snacks_127	 0	 1	 04	 1	 62	 2.920273e+02	 BagaleShtuhim.bmp	 ChocolateParaSucariotKoftzot2.bmp	 47	 43	 1	 i	 2	 0	 737.87	 0.89	 1.44	 
bmem_snacks_127	 0	 1	 04	 1	 63	 2.960152e+02	 Smarties.bmp	 BagaleShtuhim.bmp	 48	 47	 0	 i	 2	 1	 590.07	 0.71	 0.89	 
bmem_snacks_127	 0	 1	 04	 1	 64	 3.010207e+02	 KinderBuenoWhite2.bmp	 ClickXLwhite4.bmp	 8	 12	 0	 i	 1	 1	 648.46	 6.96	 6.11	 
bmem_snacks_127	 0	 1	 04	 1	 65	 3.060264e+02	 ClickBalls5.bmp	 KinderBuenoBrown3.bmp	 14	 7	 0	 i	 1	 1	 546.80	 5.96	 6.96	 
bmem_snacks_127	 0	 1	 04	 1	 66	 3.140186e+02	 Shugi.bmp	 BisliPizza3.bmp	 46	 50	 0	 i	 2	 1	 730.64	 0.93	 0.42	 
bmem_snacks_127	 0	 1	 04	 1	 67	 3.170220e+02	 KinderJoy.bmp	 ChocolateParaCookies5.bmp	 13	 9	 1	 i	 1	 0	 615.16	 6.00	 6.87	 
bmem_snacks_127	 0	 1	 04	 1	 68	 3.200254e+02	 BisliGrill.bmp	 ClickXLwhite4.bmp	 17	 12	 0	 i	 1	 1	 571.79	 5.38	 6.11	 
bmem_snacks_127	 0	 1	 04	 1	 69	 3.280176e+02	 ChocolateParaSucariotKoftzot2.bmp	 Bounty.bmp	 43	 45	 0	 u	 2	 0	 835.57	 1.44	 1.11	 
bmem_snacks_127	 0	 1	 04	 1	 70	 3.310210e+02	 KinderJoy.bmp	 Mentos.bmp	 13	 11	 1	 u	 1	 1	 688.23	 6.00	 6.31	 
bmem_snacks_127	 0	 1	 04	 1	 71	 3.440189e+02	 Tictac.bmp	 Kitkat.bmp	 56	 5	 0	 i	 3	 1	 594.27	 0.16	 7.22	 
bmem_snacks_127	 0	 1	 04	 1	 72	 3.510268e+02	 ChocolateParaCookies5.bmp	 KinderBuenoBrown3.bmp	 9	 7	 0	 i	 1	 1	 586.40	 6.87	 6.96	 
bmem_snacks_127	 0	 1	 04	 1	 73	 3.560158e+02	 ClickXLbrown4.bmp	 ChocolateParaCookies5.bmp	 10	 9	 1	 i	 1	 0	 765.40	 6.73	 6.87	 
bmem_snacks_127	 0	 1	 04	 1	 74	 3.600202e+02	 Smarties.bmp	 BabyDoll.bmp	 48	 52	 0	 u	 2	 0	 1144.96	 0.71	 0.29	 
bmem_snacks_127	 0	 1	 04	 1	 75	 3.640247e+02	 ClickBlackWhite3.bmp	 ClickXLwhite4.bmp	 16	 12	 0	 i	 1	 1	 684.47	 5.89	 6.11	 
bmem_snacks_127	 0	 1	 04	 1	 76	 3.710158e+02	 ClickBalls5.bmp	 KinderJoy.bmp	 14	 13	 0	 u	 1	 0	 837.34	 5.96	 6.00	 
bmem_snacks_127	 0	 1	 04	 1	 77	 3.780238e+02	 Bamba.bmp	 Halva2.bmp	 41	 42	 0	 u	 5	 0	 653.41	 1.67	 1.60	 
bmem_snacks_127	 0	 1	 04	 1	 78	 3.820282e+02	 BisliGrill.bmp	 ClickXLbrown4.bmp	 17	 10	 0	 i	 1	 1	 632.98	 5.38	 6.73	 
bmem_snacks_127	 0	 1	 04	 1	 79	 3.860159e+02	 BisliOnion.bmp	 BagaleShtuhim.bmp	 54	 47	 0	 u	 2	 0	 741.22	 0.22	 0.89	 
bmem_snacks_127	 0	 1	 04	 1	 80	 3.950261e+02	 Mentos.bmp	 KinderBuenoBrown3.bmp	 11	 7	 0	 i	 1	 1	 587.07	 6.31	 6.96	 
bmem_snacks_127	 0	 1	 04	 1	 81	 3.990139e+02	 ClickXLbrown4.bmp	 KinderBuenoWhite2.bmp	 10	 8	 1	 i	 1	 0	 551.25	 6.73	 6.96	 
bmem_snacks_127	 0	 1	 04	 1	 82	 4.090252e+02	 PesekZman.bmp	 KashitSour.bmp	 6	 55	 1	 u	 3	 1	 796.01	 7.13	 0.20	 
bmem_snacks_127	 0	 1	 04	 1	 83	 4.130127e+02	 DoritosGrill.bmp	 BisliOnion.bmp	 53	 54	 1	 i	 2	 0	 920.50	 0.22	 0.22	 
bmem_snacks_127	 0	 1	 04	 1	 84	 4.180185e+02	 KinderBuenoWhite2.bmp	 KinderBuenoBrown3.bmp	 8	 7	 0	 u	 1	 0	 746.63	 6.96	 6.96	 
