subjectID	scanner	order	block	run	trial	onsettime	ImageLeft	ImageRight	bidIndexLeft	bidIndexRight	IsleftGo	Response	PairType	Outcome	RT	bidLeft	bidRight	
bmem_snacks_107	 0	 1	 01	 1	 1	 2.018597e+00	 BambaSweet.bmp	 Mekupelet.bmp	 48	 53	 0	 i	 2	 1	 775.33	 2.73	 1.80	 
bmem_snacks_107	 0	 1	 01	 1	 2	 7.007517e+00	 Mekupelet.bmp	 HappyHippo.bmp	 53	 43	 1	 i	 2	 0	 812.60	 1.80	 3.16	 
bmem_snacks_107	 0	 1	 01	 1	 3	 1.701885e+01	 CrunchBisquitBrown3.bmp	 ChocolateParaMarir2.bmp	 18	 9	 1	 u	 1	 1	 742.97	 4.87	 5.91	 
bmem_snacks_107	 0	 1	 01	 1	 4	 2.102332e+01	 KinderJoy.bmp	 KashitSour.bmp	 52	 49	 1	 u	 2	 1	 722.49	 2.09	 2.71	 
bmem_snacks_107	 0	 1	 01	 1	 5	 2.601224e+01	 PesekZman.bmp	 HappyHippo.bmp	 44	 43	 1	 i	 2	 0	 533.57	 2.76	 3.16	 
bmem_snacks_107	 0	 1	 01	 1	 6	 3.201906e+01	 Egozi.bmp	 Keifli.bmp	 19	 20	 1	 u	 4	 1	 1086.78	 4.87	 4.84	 
bmem_snacks_107	 0	 1	 01	 1	 7	 3.700765e+01	 KinderBuenoBrown3.bmp	 CrunchShokoVanil.bmp	 6	 56	 1	 u	 3	 1	 626.84	 5.96	 1.16	 
bmem_snacks_107	 0	 1	 01	 1	 8	 4.001127e+01	 Kitkat.bmp	 ChocolateParaMarir2.bmp	 12	 9	 1	 i	 1	 0	 742.54	 4.91	 5.91	 
bmem_snacks_107	 0	 1	 01	 1	 9	 4.301471e+01	 GumiSnakes3.bmp	 Kitkat.bmp	 17	 12	 0	 i	 1	 1	 603.11	 4.87	 4.91	 
bmem_snacks_107	 0	 1	 01	 1	 10	 4.601803e+01	 GumiWine2.bmp	 KinderJoy.bmp	 54	 52	 0	 i	 2	 1	 911.78	 1.71	 2.09	 
bmem_snacks_107	 0	 1	 01	 1	 11	 4.902139e+01	 CrunchBisquitBrown3.bmp	 GumiSnakes3.bmp	 18	 17	 1	 u	 1	 1	 596.42	 4.87	 4.87	 
bmem_snacks_107	 0	 1	 01	 1	 12	 5.601259e+01	 Smarties.bmp	 Mentos.bmp	 51	 50	 0	 i	 2	 1	 821.22	 2.62	 2.67	 
bmem_snacks_107	 0	 1	 01	 1	 13	 5.901600e+01	 Cheetos.bmp	 Mars.bmp	 39	 40	 1	 i	 5	 0	 881.81	 3.69	 3.69	 
bmem_snacks_107	 0	 1	 01	 1	 14	 6.201942e+01	 TapuchipsCrunch.bmp	 Bamba.bmp	 41	 42	 0	 u	 5	 0	 1182.40	 3.18	 3.18	 
bmem_snacks_107	 0	 1	 01	 1	 15	 6.700830e+01	 Tictac.bmp	 Smarties.bmp	 45	 51	 1	 i	 2	 0	 1273.51	 2.76	 2.62	 
bmem_snacks_107	 0	 1	 01	 1	 16	 7.301508e+01	 KashitSour.bmp	 ClickBalls5.bmp	 49	 47	 0	 i	 2	 1	 658.73	 2.71	 2.73	 
bmem_snacks_107	 0	 1	 01	 1	 17	 7.802074e+01	 ChocolateParaSucariotKoftzot2.bmp	 ChocolateParaMarir2.bmp	 10	 9	 1	 u	 1	 1	 973.07	 5.87	 5.91	 
bmem_snacks_107	 0	 1	 01	 1	 18	 8.300955e+01	 ClickBalls5.bmp	 HappyHippo.bmp	 47	 43	 1	 u	 2	 1	 1128.26	 2.73	 3.16	 
bmem_snacks_107	 0	 1	 01	 1	 19	 9.201976e+01	 KinderBuenoBrown3.bmp	 Shugi.bmp	 6	 55	 1	 u	 3	 1	 846.05	 5.96	 1.62	 
bmem_snacks_107	 0	 1	 01	 1	 20	 9.700865e+01	 Halva2.bmp	 KinderJoy.bmp	 46	 52	 0	 i	 2	 1	 913.16	 2.73	 2.09	 
bmem_snacks_107	 0	 1	 01	 1	 21	 1.030154e+02	 ChocolateParaSucariotKoftzot2.bmp	 SkittlesSour4.bmp	 10	 16	 1	 u	 1	 1	 714.44	 5.87	 4.89	 
bmem_snacks_107	 0	 1	 01	 1	 22	 1.060189e+02	 Kitkat.bmp	 Taami.bmp	 12	 14	 1	 i	 1	 0	 854.92	 4.91	 4.89	 
bmem_snacks_107	 0	 1	 01	 1	 23	 1.190167e+02	 Smarties.bmp	 KinderJoy.bmp	 51	 52	 0	 i	 2	 1	 937.07	 2.62	 2.09	 
bmem_snacks_107	 0	 1	 01	 1	 24	 1.230212e+02	 ChocolateParaCookies5.bmp	 SkittlesSour4.bmp	 7	 16	 1	 u	 1	 1	 780.76	 5.96	 4.89	 
bmem_snacks_107	 0	 1	 01	 1	 25	 1.290113e+02	 Kitkat.bmp	 SkittlesSour4.bmp	 12	 16	 1	 u	 1	 1	 758.55	 4.91	 4.89	 
bmem_snacks_107	 0	 1	 01	 1	 26	 1.360191e+02	 Mekupelet.bmp	 KashitSour.bmp	 53	 49	 1	 u	 2	 1	 870.70	 1.80	 2.71	 
bmem_snacks_107	 0	 1	 01	 1	 27	 1.410080e+02	 CrunchBisquitWhite2.bmp	 ChocolateParaMilk3.bmp	 13	 8	 1	 u	 1	 1	 769.77	 4.91	 5.96	 
bmem_snacks_107	 0	 1	 01	 1	 28	 1.440114e+02	 Loacker.bmp	 CrunchBisquitBrown3.bmp	 11	 18	 0	 i	 1	 1	 1134.45	 4.93	 4.87	 
bmem_snacks_107	 0	 1	 01	 1	 29	 1.470148e+02	 GumiWine2.bmp	 Tictac.bmp	 54	 45	 0	 i	 2	 1	 1059.08	 1.71	 2.76	 
bmem_snacks_107	 0	 1	 01	 1	 30	 1.500181e+02	 Twix.bmp	 ClickXLwhite4.bmp	 22	 21	 1	 u	 4	 1	 1047.68	 4.84	 4.84	 
bmem_snacks_107	 0	 1	 01	 1	 31	 1.530215e+02	 Loacker.bmp	 ChocolateParaCookies5.bmp	 11	 7	 0	 i	 1	 1	 636.31	 4.93	 5.96	 
bmem_snacks_107	 0	 1	 01	 1	 32	 1.570094e+02	 ClickXLwhite4.bmp	 Twix.bmp	 21	 22	 0	 i	 4	 1	 992.47	 4.84	 4.84	 
bmem_snacks_107	 0	 1	 01	 1	 33	 1.600127e+02	 ChocolateParaSucariotKoftzot2.bmp	 ChocolateParaMilk3.bmp	 10	 8	 1	 i	 1	 0	 1261.43	 5.87	 5.96	 
bmem_snacks_107	 0	 1	 01	 1	 34	 1.690228e+02	 Taami.bmp	 CrunchBisquitBrown3.bmp	 14	 18	 0	 i	 1	 1	 906.96	 4.89	 4.87	 
bmem_snacks_107	 0	 1	 01	 1	 35	 1.730107e+02	 Kitkat.bmp	 ChocolateParaMilk3.bmp	 12	 8	 1	 x	 1	 999	 999000.00	 4.91	 5.96	 
bmem_snacks_107	 0	 1	 01	 1	 36	 1.760141e+02	 KinderJoy.bmp	 HappyHippo.bmp	 52	 43	 1	 i	 2	 0	 740.90	 2.09	 3.16	 
bmem_snacks_107	 0	 1	 01	 1	 37	 1.880109e+02	 CrunchBisquitWhite2.bmp	 Taami.bmp	 13	 14	 1	 u	 1	 1	 598.95	 4.91	 4.89	 
bmem_snacks_107	 0	 1	 01	 1	 38	 1.920153e+02	 ChocolateParaCookies5.bmp	 Taami.bmp	 7	 14	 1	 u	 1	 1	 450.53	 5.96	 4.89	 
bmem_snacks_107	 0	 1	 01	 1	 39	 1.950187e+02	 BambaSweet.bmp	 PesekZman.bmp	 48	 44	 0	 i	 2	 1	 599.16	 2.73	 2.76	 
bmem_snacks_107	 0	 1	 01	 1	 40	 1.990063e+02	 KashitSour.bmp	 Tictac.bmp	 49	 45	 0	 i	 2	 1	 659.52	 2.71	 2.76	 
bmem_snacks_107	 0	 1	 01	 1	 41	 2.030110e+02	 Loacker.bmp	 SkittlesFruits2.bmp	 11	 15	 0	 i	 1	 1	 1022.77	 4.93	 4.89	 
bmem_snacks_107	 0	 1	 01	 1	 42	 2.080166e+02	 GumiSnakes3.bmp	 ChocolateParaSucariotKoftzot2.bmp	 17	 10	 0	 i	 1	 1	 722.28	 4.87	 5.87	 
bmem_snacks_107	 0	 1	 01	 1	 43	 2.160089e+02	 CrunchBisquitWhite2.bmp	 GumiSnakes3.bmp	 13	 17	 1	 u	 1	 1	 521.14	 4.91	 4.87	 
bmem_snacks_107	 0	 1	 01	 1	 44	 2.200134e+02	 GumiSnakes3.bmp	 ChocolateParaCookies5.bmp	 17	 7	 0	 i	 1	 1	 629.49	 4.87	 5.96	 
bmem_snacks_107	 0	 1	 01	 1	 45	 2.240180e+02	 ChocolateParaMilk3.bmp	 SkittlesFruits2.bmp	 8	 15	 0	 u	 1	 0	 607.83	 5.96	 4.89	 
bmem_snacks_107	 0	 1	 01	 1	 46	 2.380170e+02	 Taami.bmp	 SkittlesFruits2.bmp	 14	 15	 0	 u	 1	 0	 696.80	 4.89	 4.89	 
bmem_snacks_107	 0	 1	 01	 1	 47	 2.410203e+02	 GumiSnakes3.bmp	 SkittlesFruits2.bmp	 17	 15	 0	 i	 1	 1	 757.50	 4.87	 4.89	 
bmem_snacks_107	 0	 1	 01	 1	 48	 2.450082e+02	 CrunchShokoVanil.bmp	 KinderBuenoWhite2.bmp	 56	 5	 0	 i	 3	 1	 769.69	 1.16	 5.98	 
bmem_snacks_107	 0	 1	 01	 1	 49	 2.490126e+02	 Mentos.bmp	 KashitSour.bmp	 50	 49	 1	 u	 2	 1	 941.16	 2.67	 2.71	 
bmem_snacks_107	 0	 1	 01	 1	 50	 2.550194e+02	 Tictac.bmp	 HappyHippo.bmp	 45	 43	 1	 i	 2	 0	 726.52	 2.76	 3.16	 
bmem_snacks_107	 0	 1	 01	 1	 51	 2.580228e+02	 BambaSweet.bmp	 KinderJoy.bmp	 48	 52	 0	 i	 2	 1	 795.05	 2.73	 2.09	 
bmem_snacks_107	 0	 1	 01	 1	 52	 2.610095e+02	 Halva2.bmp	 Mekupelet.bmp	 46	 53	 0	 i	 2	 1	 744.32	 2.73	 1.80	 
bmem_snacks_107	 0	 1	 01	 1	 53	 2.660151e+02	 Tictac.bmp	 Halva2.bmp	 45	 46	 1	 u	 2	 1	 930.72	 2.76	 2.73	 
bmem_snacks_107	 0	 1	 01	 1	 54	 2.760096e+02	 CrunchBisquitWhite2.bmp	 Loacker.bmp	 13	 11	 1	 u	 1	 1	 688.25	 4.91	 4.93	 
bmem_snacks_107	 0	 1	 01	 1	 55	 2.790131e+02	 ClickBalls5.bmp	 GumiWine2.bmp	 47	 54	 1	 u	 2	 1	 916.75	 2.73	 1.71	 
bmem_snacks_107	 0	 1	 01	 1	 56	 2.820164e+02	 Halva2.bmp	 PesekZman.bmp	 46	 44	 0	 i	 2	 1	 673.44	 2.73	 2.76	 
bmem_snacks_107	 0	 1	 01	 1	 57	 2.870221e+02	 CrunchBisquitWhite2.bmp	 SkittlesSour4.bmp	 13	 16	 1	 u	 1	 1	 604.19	 4.91	 4.89	 
bmem_snacks_107	 0	 1	 01	 1	 58	 2.900087e+02	 SkittlesFruits2.bmp	 SkittlesSour4.bmp	 15	 16	 1	 x	 1	 999	 999000.00	 4.89	 4.89	 
bmem_snacks_107	 0	 1	 01	 1	 59	 2.960155e+02	 CrunchBisquitWhite2.bmp	 ChocolateParaMarir2.bmp	 13	 9	 1	 u	 1	 1	 570.34	 4.91	 5.91	 
bmem_snacks_107	 0	 1	 01	 1	 60	 2.990188e+02	 ChocolateParaSucariotKoftzot2.bmp	 Taami.bmp	 10	 14	 1	 u	 1	 1	 631.02	 5.87	 4.89	 
bmem_snacks_107	 0	 1	 01	 1	 61	 3.040078e+02	 GumiWine2.bmp	 Mentos.bmp	 54	 50	 0	 i	 2	 1	 650.01	 1.71	 2.67	 
bmem_snacks_107	 0	 1	 01	 1	 62	 3.070111e+02	 ClickBalls5.bmp	 BambaSweet.bmp	 47	 48	 1	 u	 2	 1	 662.70	 2.73	 2.73	 
bmem_snacks_107	 0	 1	 01	 1	 63	 3.150202e+02	 Smarties.bmp	 PesekZman.bmp	 51	 44	 0	 i	 2	 1	 621.66	 2.62	 2.76	 
bmem_snacks_107	 0	 1	 01	 1	 64	 3.190079e+02	 Egozi.bmp	 Keifli.bmp	 19	 20	 1	 u	 4	 1	 961.91	 4.87	 4.84	 
bmem_snacks_107	 0	 1	 01	 1	 65	 3.230124e+02	 Kitkat.bmp	 Loacker.bmp	 12	 11	 1	 i	 1	 0	 653.48	 4.91	 4.93	 
bmem_snacks_107	 0	 1	 01	 1	 66	 3.280181e+02	 ChocolateParaMilk3.bmp	 ChocolateParaCookies5.bmp	 8	 7	 0	 i	 1	 1	 959.75	 5.96	 5.96	 
bmem_snacks_107	 0	 1	 01	 1	 67	 3.320225e+02	 Mekupelet.bmp	 GumiWine2.bmp	 53	 54	 1	 u	 2	 1	 675.28	 1.80	 1.71	 
bmem_snacks_107	 0	 1	 01	 1	 68	 3.370114e+02	 BambaSweet.bmp	 Mentos.bmp	 48	 50	 0	 i	 2	 1	 710.36	 2.73	 2.67	 
bmem_snacks_107	 0	 1	 01	 1	 69	 3.450204e+02	 Cheetos.bmp	 Mars.bmp	 39	 40	 1	 u	 5	 1	 1037.41	 3.69	 3.69	 
bmem_snacks_107	 0	 1	 01	 1	 70	 3.480069e+02	 Loacker.bmp	 ChocolateParaSucariotKoftzot2.bmp	 11	 10	 0	 i	 1	 1	 762.90	 4.93	 5.87	 
bmem_snacks_107	 0	 1	 01	 1	 71	 3.510103e+02	 Smarties.bmp	 Mekupelet.bmp	 51	 53	 0	 i	 2	 1	 919.51	 2.62	 1.80	 
bmem_snacks_107	 0	 1	 01	 1	 72	 3.560161e+02	 BambaSweet.bmp	 Tictac.bmp	 48	 45	 0	 i	 2	 1	 785.71	 2.73	 2.76	 
bmem_snacks_107	 0	 1	 01	 1	 73	 3.600206e+02	 GumiWine2.bmp	 PesekZman.bmp	 54	 44	 0	 i	 2	 1	 653.17	 1.71	 2.76	 
bmem_snacks_107	 0	 1	 01	 1	 74	 3.630073e+02	 Halva2.bmp	 ClickBalls5.bmp	 46	 47	 0	 i	 2	 1	 746.53	 2.73	 2.73	 
bmem_snacks_107	 0	 1	 01	 1	 75	 3.740197e+02	 ClickBalls5.bmp	 Smarties.bmp	 47	 51	 1	 u	 2	 1	 758.22	 2.73	 2.62	 
bmem_snacks_107	 0	 1	 01	 1	 76	 3.840143e+02	 TapuchipsCrunch.bmp	 Bamba.bmp	 41	 42	 0	 u	 5	 0	 1123.60	 3.18	 3.18	 
bmem_snacks_107	 0	 1	 01	 1	 77	 3.890199e+02	 SkittlesSour4.bmp	 CrunchBisquitBrown3.bmp	 16	 18	 0	 i	 1	 1	 733.93	 4.89	 4.87	 
bmem_snacks_107	 0	 1	 01	 1	 78	 3.930077e+02	 ChocolateParaMilk3.bmp	 CrunchBisquitBrown3.bmp	 8	 18	 0	 i	 1	 1	 651.15	 5.96	 4.87	 
bmem_snacks_107	 0	 1	 01	 1	 79	 3.970122e+02	 Halva2.bmp	 Mentos.bmp	 46	 50	 0	 i	 2	 1	 1101.61	 2.73	 2.67	 
bmem_snacks_107	 0	 1	 01	 1	 80	 4.010166e+02	 KashitSour.bmp	 PesekZman.bmp	 49	 44	 0	 i	 2	 1	 609.21	 2.71	 2.76	 
bmem_snacks_107	 0	 1	 01	 1	 81	 4.070064e+02	 ChocolateParaMarir2.bmp	 SkittlesFruits2.bmp	 9	 15	 0	 i	 1	 1	 1267.46	 5.91	 4.89	 
bmem_snacks_107	 0	 1	 01	 1	 82	 4.100101e+02	 ChocolateParaMarir2.bmp	 ChocolateParaCookies5.bmp	 9	 7	 0	 i	 1	 1	 799.72	 5.91	 5.96	 
bmem_snacks_107	 0	 1	 01	 1	 83	 4.140146e+02	 HappyHippo.bmp	 Mentos.bmp	 43	 50	 0	 u	 2	 0	 1275.22	 3.16	 2.67	 
bmem_snacks_107	 0	 1	 01	 1	 84	 4.180190e+02	 KinderBuenoWhite2.bmp	 Shugi.bmp	 5	 55	 1	 u	 3	 1	 1150.77	 5.98	 1.62	 
