subjectID	scanner	order	block	run	trial	onsettime	ImageLeft	ImageRight	bidIndexLeft	bidIndexRight	IsleftGo	Response	PairType	Outcome	RT	bidLeft	bidRight	
bmem_snacks_117	 0	 1	 01	 1	 1	 2.018966e+00	 BisliPizza3.bmp	 ClickBalls5.bmp	 8	 15	 0	 u	 1	 0	 1152.21	 5.91	 4.82	 
bmem_snacks_117	 0	 1	 01	 1	 2	 7.024547e+00	 Tapuchips.bmp	 Mekupelet.bmp	 17	 18	 0	 x	 1	 999	 999000.00	 3.82	 3.36	 
bmem_snacks_117	 0	 1	 01	 1	 3	 1.701908e+01	 Mars.bmp	 ChocolateParaSucariotKoftzot2.bmp	 56	 5	 0	 i	 3	 1	 944.12	 0.02	 5.98	 
bmem_snacks_117	 0	 1	 01	 1	 4	 2.102362e+01	 SkittlesSour4.bmp	 Bamba.bmp	 51	 53	 0	 i	 2	 1	 1011.59	 0.04	 0.04	 
bmem_snacks_117	 0	 1	 01	 1	 5	 2.602920e+01	 ChocolateParaCookies5.bmp	 Cheetos.bmp	 43	 50	 0	 i	 2	 1	 1053.98	 0.07	 0.04	 
bmem_snacks_117	 0	 1	 01	 1	 6	 3.201935e+01	 Snickers.bmp	 BambaSweet.bmp	 49	 45	 0	 u	 2	 0	 1183.83	 0.04	 0.07	 
bmem_snacks_117	 0	 1	 01	 1	 7	 3.702499e+01	 SkittlesSour4.bmp	 Smarties.bmp	 51	 47	 0	 x	 2	 999	 999000.00	 0.04	 0.07	 
bmem_snacks_117	 0	 1	 01	 1	 8	 4.002830e+01	 SkittlesFruits2.bmp	 GumiSnakes3.bmp	 44	 46	 1	 u	 2	 1	 1022.88	 0.07	 0.07	 
bmem_snacks_117	 0	 1	 01	 1	 9	 4.301493e+01	 ClickBisquit2.bmp	 Mekupelet.bmp	 11	 18	 0	 u	 1	 0	 1380.24	 5.87	 3.36	 
bmem_snacks_117	 0	 1	 01	 1	 10	 4.601836e+01	 ClickBlackWhite3.bmp	 HispusimShatiah.bmp	 16	 13	 0	 u	 1	 0	 1192.81	 4.80	 4.84	 
bmem_snacks_117	 0	 1	 01	 1	 11	 4.902174e+01	 ClickBalls5.bmp	 ClickBlackWhite3.bmp	 15	 16	 1	 u	 1	 1	 1317.43	 4.82	 4.80	 
bmem_snacks_117	 0	 1	 01	 1	 12	 5.602960e+01	 ChocolateParaCookies5.bmp	 Popco.bmp	 43	 52	 0	 u	 2	 0	 1173.59	 0.07	 0.04	 
bmem_snacks_117	 0	 1	 01	 1	 13	 5.901634e+01	 BambaSweet.bmp	 GumiSnakes3.bmp	 45	 46	 1	 x	 2	 999	 999000.00	 0.07	 0.07	 
bmem_snacks_117	 0	 1	 01	 1	 14	 6.201968e+01	 ChocolateParaMilk3.bmp	 ClickBlackWhite3.bmp	 7	 16	 1	 u	 1	 1	 1119.49	 5.93	 4.80	 
bmem_snacks_117	 0	 1	 01	 1	 15	 6.702528e+01	 Tapuchips.bmp	 Loacker.bmp	 17	 12	 0	 u	 1	 0	 1121.90	 3.82	 4.89	 
bmem_snacks_117	 0	 1	 01	 1	 16	 7.301539e+01	 GumiWine2.bmp	 Cheetos.bmp	 48	 50	 0	 i	 2	 1	 1083.78	 0.07	 0.04	 
bmem_snacks_117	 0	 1	 01	 1	 17	 7.802093e+01	 SkittlesFruits2.bmp	 SkittlesSour4.bmp	 44	 51	 1	 x	 2	 999	 999000.00	 0.07	 0.04	 
bmem_snacks_117	 0	 1	 01	 1	 18	 8.302659e+01	 Smarties.bmp	 ChocolateParaCookies5.bmp	 47	 43	 1	 u	 2	 1	 1288.57	 0.07	 0.07	 
bmem_snacks_117	 0	 1	 01	 1	 19	 9.202008e+01	 HispusimShatiah.bmp	 BisliOnion.bmp	 13	 9	 1	 i	 1	 0	 1439.09	 4.84	 5.87	 
bmem_snacks_117	 0	 1	 01	 1	 20	 9.702567e+01	 KashitSour.bmp	 Apropo.bmp	 20	 19	 0	 i	 4	 1	 1377.51	 2.73	 2.80	 
bmem_snacks_117	 0	 1	 01	 1	 21	 1.030158e+02	 GumiWine2.bmp	 Popco.bmp	 48	 52	 0	 x	 2	 999	 999000.00	 0.07	 0.04	 
bmem_snacks_117	 0	 1	 01	 1	 22	 1.060191e+02	 BambaNugat.bmp	 SkittlesFruits2.bmp	 54	 44	 0	 i	 2	 1	 1024.10	 0.04	 0.07	 
bmem_snacks_117	 0	 1	 01	 1	 23	 1.190171e+02	 Mekupelet.bmp	 ClickBlackWhite3.bmp	 18	 16	 1	 i	 1	 0	 1114.12	 3.36	 4.80	 
bmem_snacks_117	 0	 1	 01	 1	 24	 1.230216e+02	 GumiWine2.bmp	 SkittlesFruits2.bmp	 48	 44	 0	 i	 2	 1	 1077.59	 0.07	 0.07	 
bmem_snacks_117	 0	 1	 01	 1	 25	 1.290283e+02	 BambaNugat.bmp	 Smarties.bmp	 54	 47	 0	 i	 2	 1	 942.88	 0.04	 0.07	 
bmem_snacks_117	 0	 1	 01	 1	 26	 1.360195e+02	 BisliOnion.bmp	 ChocolateParaMilk3.bmp	 9	 7	 0	 u	 1	 0	 1207.68	 5.87	 5.93	 
bmem_snacks_117	 0	 1	 01	 1	 27	 1.410251e+02	 Bamba.bmp	 Snickers.bmp	 53	 49	 1	 i	 2	 0	 1146.07	 0.04	 0.04	 
bmem_snacks_117	 0	 1	 01	 1	 28	 1.440285e+02	 ChocolateParaMilk3.bmp	 DoritosNatural.bmp	 7	 14	 1	 u	 1	 1	 1198.69	 5.93	 4.84	 
bmem_snacks_117	 0	 1	 01	 1	 29	 1.470153e+02	 Bamba.bmp	 GumiSnakes3.bmp	 53	 46	 1	 x	 2	 999	 999000.00	 0.04	 0.07	 
bmem_snacks_117	 0	 1	 01	 1	 30	 1.500185e+02	 DoritosGrill.bmp	 Tapuchips.bmp	 10	 17	 1	 u	 1	 1	 1216.63	 5.87	 3.82	 
bmem_snacks_117	 0	 1	 01	 1	 31	 1.530219e+02	 Tapuchips.bmp	 HispusimShatiah.bmp	 17	 13	 0	 u	 1	 0	 909.25	 3.82	 4.84	 
bmem_snacks_117	 0	 1	 01	 1	 32	 1.570264e+02	 Halva2.bmp	 Keifli.bmp	 41	 42	 0	 x	 5	 999	 999000.00	 0.07	 0.07	 
bmem_snacks_117	 0	 1	 01	 1	 33	 1.600298e+02	 ClickBlackWhite3.bmp	 DoritosGrill.bmp	 16	 10	 0	 i	 1	 1	 1213.42	 4.80	 5.87	 
bmem_snacks_117	 0	 1	 01	 1	 34	 1.690233e+02	 BambaSweet.bmp	 SkittlesSour4.bmp	 45	 51	 1	 i	 2	 0	 1003.89	 0.07	 0.04	 
bmem_snacks_117	 0	 1	 01	 1	 35	 1.730277e+02	 ClickBisquit2.bmp	 DoritosGrill.bmp	 11	 10	 0	 u	 1	 0	 943.52	 5.87	 5.87	 
bmem_snacks_117	 0	 1	 01	 1	 36	 1.760145e+02	 ClickBisquit2.bmp	 Loacker.bmp	 11	 12	 0	 x	 1	 999	 999000.00	 5.87	 4.89	 
bmem_snacks_117	 0	 1	 01	 1	 37	 1.880279e+02	 Cheetos.bmp	 SkittlesSour4.bmp	 50	 51	 1	 i	 2	 0	 1023.26	 0.04	 0.04	 
bmem_snacks_117	 0	 1	 01	 1	 38	 1.920157e+02	 DoritosGrill.bmp	 BisliOnion.bmp	 10	 9	 1	 u	 1	 1	 907.46	 5.87	 5.87	 
bmem_snacks_117	 0	 1	 01	 1	 39	 1.950191e+02	 HispusimShatiah.bmp	 ClickBisquit2.bmp	 13	 11	 1	 i	 1	 0	 912.12	 4.84	 5.87	 
bmem_snacks_117	 0	 1	 01	 1	 40	 1.990235e+02	 Mekupelet.bmp	 BisliOnion.bmp	 18	 9	 1	 i	 1	 0	 1131.65	 3.36	 5.87	 
bmem_snacks_117	 0	 1	 01	 1	 41	 2.030281e+02	 HispusimShatiah.bmp	 DoritosNatural.bmp	 13	 14	 1	 u	 1	 1	 1439.14	 4.84	 4.84	 
bmem_snacks_117	 0	 1	 01	 1	 42	 2.080170e+02	 Mars.bmp	 PesekZman.bmp	 56	 6	 0	 i	 3	 1	 1058.22	 0.02	 5.96	 
bmem_snacks_117	 0	 1	 01	 1	 43	 2.160260e+02	 Popco.bmp	 SkittlesSour4.bmp	 52	 51	 1	 i	 2	 0	 1049.14	 0.04	 0.04	 
bmem_snacks_117	 0	 1	 01	 1	 44	 2.200135e+02	 Cheetos.bmp	 GumiSnakes3.bmp	 50	 46	 1	 u	 2	 1	 1173.68	 0.04	 0.07	 
bmem_snacks_117	 0	 1	 01	 1	 45	 2.240183e+02	 HispusimShatiah.bmp	 BisliPizza3.bmp	 13	 8	 1	 i	 1	 0	 1016.90	 4.84	 5.91	 
bmem_snacks_117	 0	 1	 01	 1	 46	 2.380174e+02	 BisliPizza3.bmp	 ChocolateParaMilk3.bmp	 8	 7	 0	 u	 1	 0	 673.78	 5.91	 5.93	 
bmem_snacks_117	 0	 1	 01	 1	 47	 2.410207e+02	 Bamba.bmp	 GumiWine2.bmp	 53	 48	 1	 u	 2	 1	 1270.50	 0.04	 0.07	 
bmem_snacks_117	 0	 1	 01	 1	 48	 2.450252e+02	 ClickBalls5.bmp	 ClickBisquit2.bmp	 15	 11	 1	 i	 1	 0	 1089.95	 4.82	 5.87	 
bmem_snacks_117	 0	 1	 01	 1	 49	 2.490128e+02	 GumiWine2.bmp	 BambaSweet.bmp	 48	 45	 0	 x	 2	 999	 999000.00	 0.07	 0.07	 
bmem_snacks_117	 0	 1	 01	 1	 50	 2.550197e+02	 ChocolateParaCookies5.bmp	 BambaSweet.bmp	 43	 45	 0	 u	 2	 0	 1431.42	 0.07	 0.07	 
bmem_snacks_117	 0	 1	 01	 1	 51	 2.580231e+02	 Popco.bmp	 BambaNugat.bmp	 52	 54	 1	 x	 2	 999	 999000.00	 0.04	 0.04	 
bmem_snacks_117	 0	 1	 01	 1	 52	 2.610265e+02	 BambaNugat.bmp	 BambaSweet.bmp	 54	 45	 0	 x	 2	 999	 999000.00	 0.04	 0.07	 
bmem_snacks_117	 0	 1	 01	 1	 53	 2.660154e+02	 SkittlesFruits2.bmp	 ChocolateParaCookies5.bmp	 44	 43	 1	 i	 2	 0	 1155.79	 0.07	 0.07	 
bmem_snacks_117	 0	 1	 01	 1	 54	 2.760267e+02	 Tapuchips.bmp	 ClickBalls5.bmp	 17	 15	 0	 u	 1	 0	 1128.49	 3.82	 4.82	 
bmem_snacks_117	 0	 1	 01	 1	 55	 2.790131e+02	 Egozi.bmp	 PesekZman.bmp	 55	 6	 0	 i	 3	 1	 950.07	 0.04	 5.96	 
bmem_snacks_117	 0	 1	 01	 1	 56	 2.820168e+02	 SkittlesFruits2.bmp	 Snickers.bmp	 44	 49	 1	 u	 2	 1	 1010.39	 0.07	 0.04	 
bmem_snacks_117	 0	 1	 01	 1	 57	 2.870223e+02	 CrunchBisquitWhite2.bmp	 KinderBuenoWhite2.bmp	 40	 39	 0	 u	 5	 0	 1356.85	 0.09	 0.11	 
bmem_snacks_117	 0	 1	 01	 1	 58	 2.900257e+02	 CrunchBisquitWhite2.bmp	 KinderBuenoWhite2.bmp	 40	 39	 0	 u	 5	 0	 1009.46	 0.09	 0.11	 
bmem_snacks_117	 0	 1	 01	 1	 59	 2.960158e+02	 Popco.bmp	 Snickers.bmp	 52	 49	 1	 i	 2	 0	 891.36	 0.04	 0.04	 
bmem_snacks_117	 0	 1	 01	 1	 60	 2.990191e+02	 Loacker.bmp	 BisliOnion.bmp	 12	 9	 1	 u	 1	 1	 800.06	 4.89	 5.87	 
bmem_snacks_117	 0	 1	 01	 1	 61	 3.040248e+02	 BisliPizza3.bmp	 DoritosGrill.bmp	 8	 10	 0	 u	 1	 0	 1218.40	 5.91	 5.87	 
bmem_snacks_117	 0	 1	 01	 1	 62	 3.070281e+02	 DoritosNatural.bmp	 Mekupelet.bmp	 14	 18	 0	 i	 1	 1	 1015.04	 4.84	 3.36	 
bmem_snacks_117	 0	 1	 01	 1	 63	 3.150205e+02	 Popco.bmp	 GumiSnakes3.bmp	 52	 46	 1	 x	 2	 999	 999000.00	 0.04	 0.07	 
bmem_snacks_117	 0	 1	 01	 1	 64	 3.190249e+02	 Cheetos.bmp	 BambaNugat.bmp	 50	 54	 1	 u	 2	 1	 1394.25	 0.04	 0.04	 
bmem_snacks_117	 0	 1	 01	 1	 65	 3.230294e+02	 Loacker.bmp	 ClickBlackWhite3.bmp	 12	 16	 1	 u	 1	 1	 1029.75	 4.89	 4.80	 
bmem_snacks_117	 0	 1	 01	 1	 66	 3.280184e+02	 BisliPizza3.bmp	 Mekupelet.bmp	 8	 18	 0	 u	 1	 0	 960.79	 5.91	 3.36	 
bmem_snacks_117	 0	 1	 01	 1	 67	 3.320229e+02	 DoritosNatural.bmp	 ClickBalls5.bmp	 14	 15	 0	 i	 1	 1	 1100.33	 4.84	 4.82	 
bmem_snacks_117	 0	 1	 01	 1	 68	 3.370285e+02	 Loacker.bmp	 BisliPizza3.bmp	 12	 8	 1	 i	 1	 0	 966.68	 4.89	 5.91	 
bmem_snacks_117	 0	 1	 01	 1	 69	 3.450208e+02	 Snickers.bmp	 Cheetos.bmp	 49	 50	 0	 u	 2	 0	 1078.37	 0.04	 0.04	 
bmem_snacks_117	 0	 1	 01	 1	 70	 3.480242e+02	 BisliOnion.bmp	 ClickBalls5.bmp	 9	 15	 0	 x	 1	 999	 999000.00	 5.87	 4.82	 
bmem_snacks_117	 0	 1	 01	 1	 71	 3.510275e+02	 Snickers.bmp	 Smarties.bmp	 49	 47	 0	 u	 2	 0	 1159.64	 0.04	 0.07	 
bmem_snacks_117	 0	 1	 01	 1	 72	 3.560165e+02	 Egozi.bmp	 ChocolateParaSucariotKoftzot2.bmp	 55	 5	 0	 i	 3	 1	 1058.63	 0.04	 5.98	 
bmem_snacks_117	 0	 1	 01	 1	 73	 3.600210e+02	 Keifli.bmp	 Halva2.bmp	 42	 41	 1	 u	 5	 1	 1334.19	 0.07	 0.07	 
bmem_snacks_117	 0	 1	 01	 1	 74	 3.630243e+02	 Bamba.bmp	 ChocolateParaCookies5.bmp	 53	 43	 1	 i	 2	 0	 1074.84	 0.04	 0.07	 
bmem_snacks_117	 0	 1	 01	 1	 75	 3.740200e+02	 DoritosGrill.bmp	 DoritosNatural.bmp	 10	 14	 1	 u	 1	 1	 1143.14	 5.87	 4.84	 
bmem_snacks_117	 0	 1	 01	 1	 76	 3.840146e+02	 Loacker.bmp	 DoritosNatural.bmp	 12	 14	 1	 u	 1	 1	 868.59	 4.89	 4.84	 
bmem_snacks_117	 0	 1	 01	 1	 77	 3.890202e+02	 GumiSnakes3.bmp	 Smarties.bmp	 46	 47	 0	 i	 2	 1	 990.99	 0.07	 0.07	 
bmem_snacks_117	 0	 1	 01	 1	 78	 3.930247e+02	 ChocolateParaMilk3.bmp	 Tapuchips.bmp	 7	 17	 1	 x	 1	 999	 999000.00	 5.93	 3.82	 
bmem_snacks_117	 0	 1	 01	 1	 79	 3.970292e+02	 GumiWine2.bmp	 Smarties.bmp	 48	 47	 0	 i	 2	 1	 1086.01	 0.07	 0.07	 
bmem_snacks_117	 0	 1	 01	 1	 80	 4.010170e+02	 ChocolateParaMilk3.bmp	 ClickBisquit2.bmp	 7	 11	 1	 u	 1	 1	 1018.18	 5.93	 5.87	 
bmem_snacks_117	 0	 1	 01	 1	 81	 4.070238e+02	 TapuchipsCrunch.bmp	 Kitkat.bmp	 22	 21	 1	 u	 4	 1	 1267.35	 2.67	 2.69	 
bmem_snacks_117	 0	 1	 01	 1	 82	 4.100271e+02	 Apropo.bmp	 KashitSour.bmp	 19	 20	 1	 u	 4	 1	 1248.08	 2.80	 2.73	 
bmem_snacks_117	 0	 1	 01	 1	 83	 4.140150e+02	 TapuchipsCrunch.bmp	 Kitkat.bmp	 22	 21	 1	 u	 4	 1	 1044.25	 2.67	 2.69	 
bmem_snacks_117	 0	 1	 01	 1	 84	 4.180194e+02	 Bamba.bmp	 BambaNugat.bmp	 53	 54	 1	 u	 2	 1	 1191.82	 0.04	 0.04	 
