subjectID	scanner	order	block	run	trial	onsettime	ImageLeft	ImageRight	bidIndexLeft	bidIndexRight	IsleftGo	Response	PairType	Outcome	RT	bidLeft	bidRight	
bmem_snacks_116	 0	 2	 05	 1	 1	 2.018691e+00	 Shugi.bmp	 Egozi.bmp	 49	 53	 1	 i	 2	 0	 847.36	 3.87	 3.73	 
bmem_snacks_116	 0	 2	 05	 1	 2	 7.024381e+00	 ClickBisquit2.bmp	 Smarties.bmp	 20	 19	 1	 i	 4	 0	 593.67	 8.02	 8.07	 
bmem_snacks_116	 0	 2	 05	 1	 3	 1.102888e+01	 Mentos.bmp	 WerthersOriginal.bmp	 14	 13	 1	 u	 1	 1	 629.18	 8.76	 9.07	 
bmem_snacks_116	 0	 2	 05	 1	 4	 1.401527e+01	 Cheetos.bmp	 Popco.bmp	 11	 12	 1	 i	 1	 0	 770.82	 9.11	 9.07	 
bmem_snacks_116	 0	 2	 05	 1	 5	 2.402682e+01	 KifkefMaklot2.bmp	 GumiWine2.bmp	 44	 54	 0	 i	 2	 1	 791.23	 4.84	 3.62	 
bmem_snacks_116	 0	 2	 05	 1	 6	 2.803125e+01	 CrunchBisquitWhite2.bmp	 Popco.bmp	 16	 12	 1	 i	 1	 0	 754.80	 8.16	 9.07	 
bmem_snacks_116	 0	 2	 05	 1	 7	 3.101800e+01	 Kitkat.bmp	 DoritosSourSpicy.bmp	 45	 43	 0	 i	 2	 1	 808.05	 4.71	 4.84	 
bmem_snacks_116	 0	 2	 05	 1	 8	 3.402127e+01	 HappyHippo.bmp	 WerthersOriginal.bmp	 17	 13	 1	 i	 1	 0	 796.79	 8.11	 9.07	 
bmem_snacks_116	 0	 2	 05	 1	 9	 3.802578e+01	 Kitkat.bmp	 GumiSnakes3.bmp	 45	 48	 0	 i	 2	 1	 680.27	 4.71	 3.93	 
bmem_snacks_116	 0	 2	 05	 1	 10	 5.002256e+01	 Popco.bmp	 HappyHippo.bmp	 12	 17	 0	 u	 1	 0	 955.49	 9.07	 8.11	 
bmem_snacks_116	 0	 2	 05	 1	 11	 5.302594e+01	 ClickXLbrown4.bmp	 Tapuchips.bmp	 9	 18	 1	 i	 1	 0	 1000.12	 9.13	 8.09	 
bmem_snacks_116	 0	 2	 05	 1	 12	 5.901572e+01	 KinderBuenoWhite2.bmp	 DoritosNatural.bmp	 8	 7	 1	 u	 1	 1	 1130.34	 9.18	 9.60	 
bmem_snacks_116	 0	 2	 05	 1	 13	 6.201937e+01	 WerthersOriginal.bmp	 CrunchBisquitWhite2.bmp	 13	 16	 0	 u	 1	 0	 758.68	 9.07	 8.16	 
bmem_snacks_116	 0	 2	 05	 1	 14	 6.802619e+01	 ClickBisquit2.bmp	 Smarties.bmp	 20	 19	 1	 i	 4	 0	 495.86	 8.02	 8.07	 
bmem_snacks_116	 0	 2	 05	 1	 15	 7.301474e+01	 KifkefMaklot2.bmp	 HispusimShatiah.bmp	 44	 46	 0	 i	 2	 1	 707.31	 4.84	 3.96	 
bmem_snacks_116	 0	 2	 05	 1	 16	 8.102403e+01	 Tortit.bmp	 Tictac.bmp	 55	 5	 0	 i	 3	 1	 650.03	 2.96	 9.91	 
bmem_snacks_116	 0	 2	 05	 1	 17	 8.402743e+01	 WerthersOriginal.bmp	 KinderBuenoWhite2.bmp	 13	 8	 0	 u	 1	 0	 774.62	 9.07	 9.18	 
bmem_snacks_116	 0	 2	 05	 1	 18	 9.302083e+01	 DoritosNatural.bmp	 Cheetos.bmp	 7	 11	 0	 u	 1	 0	 605.22	 9.60	 9.11	 
bmem_snacks_116	 0	 2	 05	 1	 19	 9.702534e+01	 Mentos.bmp	 Popco.bmp	 14	 12	 1	 u	 1	 1	 992.72	 8.76	 9.07	 
bmem_snacks_116	 0	 2	 05	 1	 20	 1.060188e+02	 Halva2.bmp	 BambaNugat.bmp	 47	 51	 0	 i	 2	 1	 831.27	 3.93	 3.80	 
bmem_snacks_116	 0	 2	 05	 1	 21	 1.090222e+02	 DoritosSourSpicy.bmp	 Halva2.bmp	 43	 47	 1	 u	 2	 1	 691.88	 4.84	 3.93	 
bmem_snacks_116	 0	 2	 05	 1	 22	 1.130267e+02	 CrunchBisquitWhite2.bmp	 Dubonim.bmp	 16	 15	 1	 i	 1	 0	 823.39	 8.16	 8.18	 
bmem_snacks_116	 0	 2	 05	 1	 23	 1.190168e+02	 GumiSnakes3.bmp	 Halva2.bmp	 48	 47	 1	 u	 2	 1	 945.30	 3.93	 3.93	 
bmem_snacks_116	 0	 2	 05	 1	 24	 1.220201e+02	 GumiWine2.bmp	 Egozi.bmp	 54	 53	 1	 u	 2	 1	 725.92	 3.62	 3.73	 
bmem_snacks_116	 0	 2	 05	 1	 25	 1.260246e+02	 CrunchShokoVanil.bmp	 Twist.bmp	 41	 42	 1	 i	 5	 0	 1033.42	 4.89	 4.87	 
bmem_snacks_116	 0	 2	 05	 1	 26	 1.330154e+02	 BisliGrill.bmp	 Snickers.bmp	 21	 22	 1	 u	 4	 1	 682.61	 8.00	 7.96	 
bmem_snacks_116	 0	 2	 05	 1	 27	 1.360191e+02	 GumiWine2.bmp	 BagaleShtuhim.bmp	 54	 52	 1	 u	 2	 1	 822.94	 3.62	 3.78	 
bmem_snacks_116	 0	 2	 05	 1	 28	 1.390225e+02	 Popco.bmp	 ClickXLbrown4.bmp	 12	 9	 0	 u	 1	 0	 811.58	 9.07	 9.13	 
bmem_snacks_116	 0	 2	 05	 1	 29	 1.420258e+02	 GumiWine2.bmp	 Kitkat.bmp	 54	 45	 1	 u	 2	 1	 856.25	 3.62	 4.71	 
bmem_snacks_116	 0	 2	 05	 1	 30	 1.470315e+02	 GumiWine2.bmp	 Taami.bmp	 54	 50	 1	 u	 2	 1	 834.55	 3.62	 3.80	 
bmem_snacks_116	 0	 2	 05	 1	 31	 1.500181e+02	 DoritosSourSpicy.bmp	 Egozi.bmp	 43	 53	 1	 u	 2	 1	 808.03	 4.84	 3.73	 
bmem_snacks_116	 0	 2	 05	 1	 32	 1.540226e+02	 Mentos.bmp	 SkittlesFruits2.bmp	 14	 10	 1	 u	 1	 1	 691.42	 8.76	 9.11	 
bmem_snacks_116	 0	 2	 05	 1	 33	 1.670206e+02	 Bamba.bmp	 Tictac.bmp	 56	 5	 0	 i	 3	 1	 1045.44	 2.76	 9.91	 
bmem_snacks_116	 0	 2	 05	 1	 34	 1.720262e+02	 BambaNugat.bmp	 Egozi.bmp	 51	 53	 1	 i	 2	 0	 767.89	 3.80	 3.73	 
bmem_snacks_116	 0	 2	 05	 1	 35	 1.760307e+02	 Cheetos.bmp	 SkittlesFruits2.bmp	 11	 10	 1	 i	 1	 0	 611.40	 9.11	 9.11	 
bmem_snacks_116	 0	 2	 05	 1	 36	 1.820208e+02	 WerthersOriginal.bmp	 ClickXLbrown4.bmp	 13	 9	 0	 u	 1	 0	 781.29	 9.07	 9.13	 
bmem_snacks_116	 0	 2	 05	 1	 37	 1.880275e+02	 GumiWine2.bmp	 Halva2.bmp	 54	 47	 1	 u	 2	 1	 774.56	 3.62	 3.93	 
bmem_snacks_116	 0	 2	 05	 1	 38	 1.910309e+02	 BisliPizza3.bmp	 TapuchipsCrunch.bmp	 40	 39	 1	 i	 5	 0	 1403.19	 4.89	 4.93	 
bmem_snacks_116	 0	 2	 05	 1	 39	 1.970209e+02	 Egozi.bmp	 GumiSnakes3.bmp	 53	 48	 0	 i	 2	 1	 701.19	 3.73	 3.93	 
bmem_snacks_116	 0	 2	 05	 1	 40	 2.000243e+02	 WerthersOriginal.bmp	 Cheetos.bmp	 13	 11	 0	 u	 1	 0	 1193.79	 9.07	 9.11	 
bmem_snacks_116	 0	 2	 05	 1	 41	 2.070152e+02	 Twist.bmp	 CrunchShokoVanil.bmp	 42	 41	 0	 u	 5	 0	 618.83	 4.87	 4.89	 
bmem_snacks_116	 0	 2	 05	 1	 42	 2.170267e+02	 Tapuchips.bmp	 HappyHippo.bmp	 18	 17	 0	 u	 1	 0	 903.38	 8.09	 8.11	 
bmem_snacks_116	 0	 2	 05	 1	 43	 2.200301e+02	 KinderBuenoBrown3.bmp	 Tortit.bmp	 6	 55	 1	 u	 3	 1	 579.92	 9.87	 2.96	 
bmem_snacks_116	 0	 2	 05	 1	 44	 2.240178e+02	 Tapuchips.bmp	 Cheetos.bmp	 18	 11	 0	 i	 1	 1	 1024.23	 8.09	 9.11	 
bmem_snacks_116	 0	 2	 05	 1	 45	 2.280223e+02	 TapuchipsCrunch.bmp	 BisliPizza3.bmp	 39	 40	 0	 u	 5	 0	 723.72	 4.93	 4.89	 
bmem_snacks_116	 0	 2	 05	 1	 46	 2.310257e+02	 SkittlesFruits2.bmp	 KinderBuenoWhite2.bmp	 10	 8	 0	 u	 1	 0	 624.38	 9.11	 9.18	 
bmem_snacks_116	 0	 2	 05	 1	 47	 2.370155e+02	 Dubonim.bmp	 Mentos.bmp	 15	 14	 0	 i	 1	 1	 674.55	 8.18	 8.76	 
bmem_snacks_116	 0	 2	 05	 1	 48	 2.420214e+02	 GumiSnakes3.bmp	 Taami.bmp	 48	 50	 1	 u	 2	 1	 620.71	 3.93	 3.80	 
bmem_snacks_116	 0	 2	 05	 1	 49	 2.450247e+02	 BagaleShtuhim.bmp	 GumiSnakes3.bmp	 52	 48	 0	 i	 2	 1	 545.36	 3.78	 3.93	 
bmem_snacks_116	 0	 2	 05	 1	 50	 2.490292e+02	 DoritosNatural.bmp	 HappyHippo.bmp	 7	 17	 0	 u	 1	 0	 868.86	 9.60	 8.11	 
bmem_snacks_116	 0	 2	 05	 1	 51	 2.570215e+02	 KinderBuenoWhite2.bmp	 Popco.bmp	 8	 12	 1	 u	 1	 1	 748.56	 9.18	 9.07	 
bmem_snacks_116	 0	 2	 05	 1	 52	 2.620272e+02	 ClickXLbrown4.bmp	 DoritosNatural.bmp	 9	 7	 1	 i	 1	 0	 614.82	 9.13	 9.60	 
bmem_snacks_116	 0	 2	 05	 1	 53	 2.670159e+02	 Egozi.bmp	 HispusimShatiah.bmp	 53	 46	 0	 i	 2	 1	 1018.18	 3.73	 3.96	 
bmem_snacks_116	 0	 2	 05	 1	 54	 2.750251e+02	 Dubonim.bmp	 KinderBuenoWhite2.bmp	 15	 8	 0	 u	 1	 0	 1104.99	 8.18	 9.18	 
bmem_snacks_116	 0	 2	 05	 1	 55	 2.800307e+02	 BisliGrill.bmp	 Snickers.bmp	 21	 22	 1	 u	 4	 1	 987.35	 8.00	 7.96	 
bmem_snacks_116	 0	 2	 05	 1	 56	 2.870218e+02	 Taami.bmp	 DoritosSourSpicy.bmp	 50	 43	 0	 i	 2	 1	 812.31	 3.80	 4.84	 
bmem_snacks_116	 0	 2	 05	 1	 57	 2.920275e+02	 BambaNugat.bmp	 Taami.bmp	 51	 50	 1	 i	 2	 0	 1110.60	 3.80	 3.80	 
bmem_snacks_116	 0	 2	 05	 1	 58	 3.000198e+02	 Halva2.bmp	 HispusimShatiah.bmp	 47	 46	 0	 i	 2	 1	 734.26	 3.93	 3.96	 
bmem_snacks_116	 0	 2	 05	 1	 59	 3.050254e+02	 DoritosSourSpicy.bmp	 BagaleShtuhim.bmp	 43	 52	 1	 u	 2	 1	 904.68	 4.84	 3.78	 
bmem_snacks_116	 0	 2	 05	 1	 60	 3.100311e+02	 Kitkat.bmp	 Shugi.bmp	 45	 49	 0	 i	 2	 1	 562.95	 4.71	 3.87	 
bmem_snacks_116	 0	 2	 05	 1	 61	 3.150199e+02	 KinderBuenoBrown3.bmp	 Bamba.bmp	 6	 56	 1	 u	 3	 1	 806.13	 9.87	 2.76	 
bmem_snacks_116	 0	 2	 05	 1	 62	 3.190245e+02	 KifkefMaklot2.bmp	 BambaNugat.bmp	 44	 51	 0	 u	 2	 0	 1273.58	 4.84	 3.80	 
bmem_snacks_116	 0	 2	 05	 1	 63	 3.230289e+02	 Mentos.bmp	 Tapuchips.bmp	 14	 18	 1	 u	 1	 1	 821.15	 8.76	 8.09	 
bmem_snacks_116	 0	 2	 05	 1	 64	 3.280180e+02	 Shugi.bmp	 Halva2.bmp	 49	 47	 1	 u	 2	 1	 1264.10	 3.87	 3.93	 
bmem_snacks_116	 0	 2	 05	 1	 65	 3.320223e+02	 BagaleShtuhim.bmp	 HispusimShatiah.bmp	 52	 46	 0	 i	 2	 1	 691.71	 3.78	 3.96	 
bmem_snacks_116	 0	 2	 05	 1	 66	 3.380291e+02	 CrunchBisquitWhite2.bmp	 Tapuchips.bmp	 16	 18	 1	 i	 1	 0	 1157.02	 8.16	 8.09	 
bmem_snacks_116	 0	 2	 05	 1	 67	 3.410155e+02	 Dubonim.bmp	 Cheetos.bmp	 15	 11	 0	 i	 1	 1	 1146.61	 8.18	 9.11	 
bmem_snacks_116	 0	 2	 05	 1	 68	 3.440192e+02	 DoritosNatural.bmp	 CrunchBisquitWhite2.bmp	 7	 16	 0	 u	 1	 0	 878.88	 9.60	 8.16	 
bmem_snacks_116	 0	 2	 05	 1	 69	 3.480237e+02	 KifkefMaklot2.bmp	 Shugi.bmp	 44	 49	 0	 u	 2	 0	 1202.39	 4.84	 3.87	 
bmem_snacks_116	 0	 2	 05	 1	 70	 3.520281e+02	 DoritosNatural.bmp	 Mentos.bmp	 7	 14	 0	 i	 1	 1	 565.98	 9.60	 8.76	 
bmem_snacks_116	 0	 2	 05	 1	 71	 3.550315e+02	 GumiSnakes3.bmp	 KifkefMaklot2.bmp	 48	 44	 1	 i	 2	 0	 722.56	 3.93	 4.84	 
bmem_snacks_116	 0	 2	 05	 1	 72	 3.590192e+02	 HispusimShatiah.bmp	 Kitkat.bmp	 46	 45	 1	 u	 2	 1	 758.81	 3.96	 4.71	 
bmem_snacks_116	 0	 2	 05	 1	 73	 3.630238e+02	 BagaleShtuhim.bmp	 BambaNugat.bmp	 52	 51	 0	 u	 2	 0	 778.28	 3.78	 3.80	 
bmem_snacks_116	 0	 2	 05	 1	 74	 3.660272e+02	 HappyHippo.bmp	 SkittlesFruits2.bmp	 17	 10	 1	 i	 1	 0	 494.83	 8.11	 9.11	 
bmem_snacks_116	 0	 2	 05	 1	 75	 3.700317e+02	 KinderBuenoWhite2.bmp	 Tapuchips.bmp	 8	 18	 1	 u	 1	 1	 1018.37	 9.18	 8.09	 
bmem_snacks_116	 0	 2	 05	 1	 76	 3.750206e+02	 Taami.bmp	 HispusimShatiah.bmp	 50	 46	 0	 i	 2	 1	 765.48	 3.80	 3.96	 
bmem_snacks_116	 0	 2	 05	 1	 77	 3.780240e+02	 HappyHippo.bmp	 Dubonim.bmp	 17	 15	 1	 u	 1	 1	 1042.07	 8.11	 8.18	 
bmem_snacks_116	 0	 2	 05	 1	 78	 3.850318e+02	 SkittlesFruits2.bmp	 ClickXLbrown4.bmp	 10	 9	 0	 u	 1	 0	 618.28	 9.11	 9.13	 
bmem_snacks_116	 0	 2	 05	 1	 79	 3.900208e+02	 SkittlesFruits2.bmp	 CrunchBisquitWhite2.bmp	 10	 16	 0	 u	 1	 0	 485.31	 9.11	 8.16	 
bmem_snacks_116	 0	 2	 05	 1	 80	 3.950263e+02	 Shugi.bmp	 BagaleShtuhim.bmp	 49	 52	 1	 x	 2	 999	 999000.00	 3.87	 3.78	 
bmem_snacks_116	 0	 2	 05	 1	 81	 3.990308e+02	 Kitkat.bmp	 BambaNugat.bmp	 45	 51	 0	 u	 2	 0	 843.23	 4.71	 3.80	 
bmem_snacks_116	 0	 2	 05	 1	 82	 4.080242e+02	 Taami.bmp	 Shugi.bmp	 50	 49	 0	 u	 2	 0	 993.82	 3.80	 3.87	 
bmem_snacks_116	 0	 2	 05	 1	 83	 4.110276e+02	 Dubonim.bmp	 ClickXLbrown4.bmp	 15	 9	 0	 u	 1	 0	 574.42	 8.18	 9.13	 
bmem_snacks_116	 0	 2	 05	 1	 84	 4.180188e+02	 KifkefMaklot2.bmp	 DoritosSourSpicy.bmp	 44	 43	 0	 u	 2	 0	 823.27	 4.84	 4.84	 
