subjectID	scanner	order	block	run	trial	onsettime	ImageLeft	ImageRight	bidIndexLeft	bidIndexRight	IsleftGo	Response	PairType	Outcome	RT	bidLeft	bidRight	
bmem_snacks_113	 0	 1	 03	 1	 1	 2.018592e+00	 CrunchBisquitBrown3.bmp	 Loacker.bmp	 7	 14	 1	 u	 1	 1	 917.57	 9.89	 8.11	 
bmem_snacks_113	 0	 1	 03	 1	 2	 7.024144e+00	 Hit.bmp	 CrunchBisquitWhite2.bmp	 9	 10	 0	 u	 1	 0	 1160.01	 9.13	 9.13	 
bmem_snacks_113	 0	 1	 03	 1	 3	 1.101198e+01	 BisliOnion.bmp	 Mars.bmp	 48	 53	 0	 u	 2	 0	 1020.17	 1.60	 0.64	 
bmem_snacks_113	 0	 1	 03	 1	 4	 1.401540e+01	 Halva2.bmp	 ChocolateParaCookies5.bmp	 11	 13	 0	 u	 1	 0	 1376.78	 9.04	 9.02	 
bmem_snacks_113	 0	 1	 03	 1	 5	 2.400966e+01	 Hit.bmp	 ChocolateParaCookies5.bmp	 9	 13	 0	 u	 1	 0	 1158.50	 9.13	 9.02	 
bmem_snacks_113	 0	 1	 03	 1	 6	 2.801445e+01	 BagaleShtuhim.bmp	 PesekZman.bmp	 17	 15	 0	 i	 1	 1	 1057.70	 7.00	 8.04	 
bmem_snacks_113	 0	 1	 03	 1	 7	 3.101777e+01	 Taami.bmp	 Cheetos.bmp	 55	 5	 0	 i	 3	 1	 774.40	 0.53	 9.93	 
bmem_snacks_113	 0	 1	 03	 1	 8	 3.402118e+01	 Shugi.bmp	 Smarties.bmp	 45	 49	 1	 u	 2	 1	 954.97	 1.69	 1.60	 
bmem_snacks_113	 0	 1	 03	 1	 9	 3.800868e+01	 ChocolateParaMarir2.bmp	 ChocolateParaSucariotKoftzot2.bmp	 43	 47	 0	 i	 2	 1	 1063.48	 1.73	 1.64	 
bmem_snacks_113	 0	 1	 03	 1	 10	 5.002242e+01	 HispusimShatiah.bmp	 TapuchipsCrunch.bmp	 19	 20	 1	 u	 4	 1	 953.73	 5.93	 5.93	 
bmem_snacks_113	 0	 1	 03	 1	 11	 5.300891e+01	 HappyHippo.bmp	 KinderJoy.bmp	 12	 8	 1	 i	 1	 0	 1135.25	 9.04	 9.84	 
bmem_snacks_113	 0	 1	 03	 1	 12	 5.901586e+01	 Smarties.bmp	 CrunchShokoVanil.bmp	 49	 44	 0	 x	 2	 999	 999000.00	 1.60	 1.71	 
bmem_snacks_113	 0	 1	 03	 1	 13	 6.201924e+01	 CrunchBisquitWhite2.bmp	 BagaleShtuhim.bmp	 10	 17	 1	 u	 1	 1	 732.92	 9.13	 7.00	 
bmem_snacks_113	 0	 1	 03	 1	 14	 6.800895e+01	 Twix.bmp	 Tictac.bmp	 52	 46	 1	 i	 2	 0	 847.24	 0.64	 1.67	 
bmem_snacks_113	 0	 1	 03	 1	 15	 7.301489e+01	 Kitkat.bmp	 DoritosNatural.bmp	 39	 40	 1	 u	 5	 1	 1153.26	 2.73	 2.71	 
bmem_snacks_113	 0	 1	 03	 1	 16	 8.102393e+01	 DoritosNatural.bmp	 Kitkat.bmp	 40	 39	 0	 i	 5	 1	 1256.25	 2.71	 2.73	 
bmem_snacks_113	 0	 1	 03	 1	 17	 8.401068e+01	 Snickers.bmp	 Tortit.bmp	 54	 50	 0	 i	 2	 1	 973.48	 0.60	 1.51	 
bmem_snacks_113	 0	 1	 03	 1	 18	 9.302072e+01	 Twist.bmp	 Tortit.bmp	 51	 50	 0	 i	 2	 1	 827.43	 0.76	 1.51	 
bmem_snacks_113	 0	 1	 03	 1	 19	 9.702516e+01	 BisliPizza3.bmp	 DoritosGrill.bmp	 42	 41	 1	 u	 5	 1	 1135.00	 2.64	 2.71	 
bmem_snacks_113	 0	 1	 03	 1	 20	 1.060186e+02	 Mekupelet.bmp	 KinderJoy.bmp	 18	 8	 1	 i	 1	 0	 685.53	 6.87	 9.84	 
bmem_snacks_113	 0	 1	 03	 1	 21	 1.090220e+02	 KinderJoy.bmp	 CrunchBisquitBrown3.bmp	 8	 7	 0	 u	 1	 0	 738.17	 9.84	 9.89	 
bmem_snacks_113	 0	 1	 03	 1	 22	 1.130094e+02	 Halva2.bmp	 Mekupelet.bmp	 11	 18	 0	 i	 1	 1	 902.71	 9.04	 6.87	 
bmem_snacks_113	 0	 1	 03	 1	 23	 1.190165e+02	 BagaleShtuhim.bmp	 Mekupelet.bmp	 17	 18	 0	 i	 1	 1	 1023.62	 7.00	 6.87	 
bmem_snacks_113	 0	 1	 03	 1	 24	 1.220199e+02	 HappyHippo.bmp	 Hit.bmp	 12	 9	 1	 x	 1	 999	 999000.00	 9.04	 9.13	 
bmem_snacks_113	 0	 1	 03	 1	 25	 1.260244e+02	 Bamba.bmp	 Mekupelet.bmp	 16	 18	 0	 i	 1	 1	 615.78	 7.04	 6.87	 
bmem_snacks_113	 0	 1	 03	 1	 26	 1.330156e+02	 Mekupelet.bmp	 Hit.bmp	 18	 9	 1	 i	 1	 0	 696.53	 6.87	 9.13	 
bmem_snacks_113	 0	 1	 03	 1	 27	 1.360189e+02	 BisliOnion.bmp	 Shugi.bmp	 48	 45	 0	 u	 2	 0	 1061.26	 1.60	 1.69	 
bmem_snacks_113	 0	 1	 03	 1	 28	 1.390224e+02	 Bamba.bmp	 CrunchBisquitWhite2.bmp	 16	 10	 0	 i	 1	 1	 577.79	 7.04	 9.13	 
bmem_snacks_113	 0	 1	 03	 1	 29	 1.420088e+02	 Loacker.bmp	 PesekZman.bmp	 14	 15	 0	 i	 1	 1	 743.37	 8.11	 8.04	 
bmem_snacks_113	 0	 1	 03	 1	 30	 1.470146e+02	 HappyHippo.bmp	 Halva2.bmp	 12	 11	 1	 u	 1	 1	 801.53	 9.04	 9.04	 
bmem_snacks_113	 0	 1	 03	 1	 31	 1.500180e+02	 KinderJoy.bmp	 PesekZman.bmp	 8	 15	 0	 u	 1	 0	 598.20	 9.84	 8.04	 
bmem_snacks_113	 0	 1	 03	 1	 32	 1.540225e+02	 CrunchBisquitWhite2.bmp	 Loacker.bmp	 10	 14	 1	 u	 1	 1	 785.67	 9.13	 8.11	 
bmem_snacks_113	 0	 1	 03	 1	 33	 1.670204e+02	 PesekZman.bmp	 Bamba.bmp	 15	 16	 1	 u	 1	 1	 931.75	 8.04	 7.04	 
bmem_snacks_113	 0	 1	 03	 1	 34	 1.720092e+02	 CrunchShokoVanil.bmp	 BisliOnion.bmp	 44	 48	 1	 i	 2	 0	 831.00	 1.71	 1.60	 
bmem_snacks_113	 0	 1	 03	 1	 35	 1.760138e+02	 Twix.bmp	 Smarties.bmp	 52	 49	 1	 i	 2	 0	 714.32	 0.64	 1.60	 
bmem_snacks_113	 0	 1	 03	 1	 36	 1.820205e+02	 Bamba.bmp	 HappyHippo.bmp	 16	 12	 0	 i	 1	 1	 699.62	 7.04	 9.04	 
bmem_snacks_113	 0	 1	 03	 1	 37	 1.880107e+02	 ChocolateParaMarir2.bmp	 Mars.bmp	 43	 53	 0	 u	 2	 0	 885.49	 1.73	 0.64	 
bmem_snacks_113	 0	 1	 03	 1	 38	 1.910140e+02	 Snickers.bmp	 Mars.bmp	 54	 53	 0	 u	 2	 0	 1114.12	 0.60	 0.64	 
bmem_snacks_113	 0	 1	 03	 1	 39	 1.970208e+02	 Snickers.bmp	 ChocolateParaSucariotKoftzot2.bmp	 54	 47	 0	 i	 2	 1	 659.40	 0.60	 1.64	 
bmem_snacks_113	 0	 1	 03	 1	 40	 2.000242e+02	 Tortit.bmp	 Smarties.bmp	 50	 49	 1	 i	 2	 0	 871.98	 1.51	 1.60	 
bmem_snacks_113	 0	 1	 03	 1	 41	 2.070153e+02	 Twist.bmp	 Mars.bmp	 51	 53	 0	 u	 2	 0	 880.89	 0.76	 0.64	 
bmem_snacks_113	 0	 1	 03	 1	 42	 2.170096e+02	 Twist.bmp	 Shugi.bmp	 51	 45	 0	 u	 2	 0	 1086.58	 0.76	 1.69	 
bmem_snacks_113	 0	 1	 03	 1	 43	 2.200132e+02	 Shugi.bmp	 Snickers.bmp	 45	 54	 1	 u	 2	 1	 802.96	 1.69	 0.60	 
bmem_snacks_113	 0	 1	 03	 1	 44	 2.240178e+02	 Twix.bmp	 Twist.bmp	 52	 51	 1	 i	 2	 0	 646.38	 0.64	 0.76	 
bmem_snacks_113	 0	 1	 03	 1	 45	 2.280222e+02	 PesekZman.bmp	 Hit.bmp	 15	 9	 1	 i	 1	 0	 865.98	 8.04	 9.13	 
bmem_snacks_113	 0	 1	 03	 1	 46	 2.310086e+02	 BagaleShtuhim.bmp	 CrunchBisquitBrown3.bmp	 17	 7	 0	 i	 1	 1	 559.58	 7.00	 9.89	 
bmem_snacks_113	 0	 1	 03	 1	 47	 2.370157e+02	 ChocolateParaMilk3.bmp	 SkittlesFruits2.bmp	 21	 22	 0	 u	 4	 0	 680.50	 5.91	 5.84	 
bmem_snacks_113	 0	 1	 03	 1	 48	 2.420213e+02	 Twix.bmp	 BisliOnion.bmp	 52	 48	 1	 i	 2	 0	 746.90	 0.64	 1.60	 
bmem_snacks_113	 0	 1	 03	 1	 49	 2.450247e+02	 Smarties.bmp	 ChocolateParaSucariotKoftzot2.bmp	 49	 47	 0	 i	 2	 1	 807.51	 1.60	 1.64	 
bmem_snacks_113	 0	 1	 03	 1	 50	 2.490125e+02	 BisliPizza3.bmp	 DoritosGrill.bmp	 42	 41	 1	 u	 5	 1	 883.70	 2.64	 2.71	 
bmem_snacks_113	 0	 1	 03	 1	 51	 2.570214e+02	 CrunchBisquitWhite2.bmp	 KinderJoy.bmp	 10	 8	 1	 i	 1	 0	 746.71	 9.13	 9.84	 
bmem_snacks_113	 0	 1	 03	 1	 52	 2.620104e+02	 Mekupelet.bmp	 Loacker.bmp	 18	 14	 1	 u	 1	 1	 957.79	 6.87	 8.11	 
bmem_snacks_113	 0	 1	 03	 1	 53	 2.670160e+02	 ChocolateParaSucariotKoftzot2.bmp	 Tictac.bmp	 47	 46	 1	 u	 2	 1	 768.18	 1.64	 1.67	 
bmem_snacks_113	 0	 1	 03	 1	 54	 2.750250e+02	 Shugi.bmp	 ChocolateParaMarir2.bmp	 45	 43	 1	 i	 2	 0	 1039.20	 1.69	 1.73	 
bmem_snacks_113	 0	 1	 03	 1	 55	 2.800139e+02	 CrunchBisquitBrown3.bmp	 Halva2.bmp	 7	 11	 1	 u	 1	 1	 874.25	 9.89	 9.04	 
bmem_snacks_113	 0	 1	 03	 1	 56	 2.870217e+02	 ChocolateParaCookies5.bmp	 Bamba.bmp	 13	 16	 1	 u	 1	 1	 770.41	 9.02	 7.04	 
bmem_snacks_113	 0	 1	 03	 1	 57	 2.920107e+02	 BagaleShtuhim.bmp	 ChocolateParaCookies5.bmp	 17	 13	 0	 i	 1	 1	 605.50	 7.00	 9.02	 
bmem_snacks_113	 0	 1	 03	 1	 58	 3.000196e+02	 Mars.bmp	 Smarties.bmp	 53	 49	 1	 i	 2	 0	 628.54	 0.64	 1.60	 
bmem_snacks_113	 0	 1	 03	 1	 59	 3.050253e+02	 Tictac.bmp	 Tortit.bmp	 46	 50	 0	 i	 2	 1	 622.90	 1.67	 1.51	 
bmem_snacks_113	 0	 1	 03	 1	 60	 3.100142e+02	 Mars.bmp	 Tictac.bmp	 53	 46	 1	 i	 2	 0	 545.91	 0.64	 1.67	 
bmem_snacks_113	 0	 1	 03	 1	 61	 3.150199e+02	 Snickers.bmp	 CrunchShokoVanil.bmp	 54	 44	 0	 u	 2	 0	 964.29	 0.60	 1.71	 
bmem_snacks_113	 0	 1	 03	 1	 62	 3.190243e+02	 CrunchBisquitWhite2.bmp	 Halva2.bmp	 10	 11	 1	 u	 1	 1	 871.81	 9.13	 9.04	 
bmem_snacks_113	 0	 1	 03	 1	 63	 3.230122e+02	 ChocolateParaSucariotKoftzot2.bmp	 Twist.bmp	 47	 51	 1	 i	 2	 0	 683.97	 1.64	 0.76	 
bmem_snacks_113	 0	 1	 03	 1	 64	 3.280177e+02	 CrunchShokoVanil.bmp	 Twist.bmp	 44	 51	 1	 i	 2	 0	 998.45	 1.71	 0.76	 
bmem_snacks_113	 0	 1	 03	 1	 65	 3.320223e+02	 HappyHippo.bmp	 Loacker.bmp	 12	 14	 1	 u	 1	 1	 745.89	 9.04	 8.11	 
bmem_snacks_113	 0	 1	 03	 1	 66	 3.380123e+02	 Twix.bmp	 Snickers.bmp	 52	 54	 1	 u	 2	 1	 939.96	 0.64	 0.60	 
bmem_snacks_113	 0	 1	 03	 1	 67	 3.410157e+02	 ChocolateParaMarir2.bmp	 Twix.bmp	 43	 52	 0	 u	 2	 0	 672.49	 1.73	 0.64	 
bmem_snacks_113	 0	 1	 03	 1	 68	 3.440190e+02	 PesekZman.bmp	 Halva2.bmp	 15	 11	 1	 u	 1	 1	 685.11	 8.04	 9.04	 
bmem_snacks_113	 0	 1	 03	 1	 69	 3.480235e+02	 Tictac.bmp	 Shugi.bmp	 46	 45	 0	 u	 2	 0	 872.70	 1.67	 1.69	 
bmem_snacks_113	 0	 1	 03	 1	 70	 3.520114e+02	 Bamba.bmp	 CrunchBisquitBrown3.bmp	 16	 7	 0	 i	 1	 1	 580.81	 7.04	 9.89	 
bmem_snacks_113	 0	 1	 03	 1	 71	 3.550147e+02	 TapuchipsCrunch.bmp	 HispusimShatiah.bmp	 20	 19	 0	 u	 4	 0	 977.51	 5.93	 5.93	 
bmem_snacks_113	 0	 1	 03	 1	 72	 3.590192e+02	 Cheetos.bmp	 Popco.bmp	 5	 56	 1	 u	 3	 1	 660.94	 9.93	 0.13	 
bmem_snacks_113	 0	 1	 03	 1	 73	 3.630236e+02	 KashitSour.bmp	 Taami.bmp	 6	 55	 1	 u	 3	 1	 728.53	 9.91	 0.53	 
bmem_snacks_113	 0	 1	 03	 1	 74	 3.660104e+02	 KinderJoy.bmp	 ChocolateParaCookies5.bmp	 8	 13	 0	 u	 1	 0	 693.80	 9.84	 9.02	 
bmem_snacks_113	 0	 1	 03	 1	 75	 3.700149e+02	 SkittlesFruits2.bmp	 ChocolateParaMilk3.bmp	 22	 21	 1	 i	 4	 0	 785.28	 5.84	 5.91	 
bmem_snacks_113	 0	 1	 03	 1	 76	 3.750205e+02	 Tortit.bmp	 ChocolateParaMarir2.bmp	 50	 43	 1	 u	 2	 1	 1363.67	 1.51	 1.73	 
bmem_snacks_113	 0	 1	 03	 1	 77	 3.780238e+02	 HappyHippo.bmp	 BagaleShtuhim.bmp	 12	 17	 1	 u	 1	 1	 664.35	 9.04	 7.00	 
bmem_snacks_113	 0	 1	 03	 1	 78	 3.850150e+02	 Popco.bmp	 KashitSour.bmp	 56	 6	 0	 i	 3	 1	 721.16	 0.13	 9.91	 
bmem_snacks_113	 0	 1	 03	 1	 79	 3.900206e+02	 Tortit.bmp	 BisliOnion.bmp	 50	 48	 1	 u	 2	 1	 1387.51	 1.51	 1.60	 
bmem_snacks_113	 0	 1	 03	 1	 80	 3.950093e+02	 Tictac.bmp	 CrunchShokoVanil.bmp	 46	 44	 0	 u	 2	 0	 678.88	 1.67	 1.71	 
bmem_snacks_113	 0	 1	 03	 1	 81	 3.990140e+02	 Hit.bmp	 CrunchBisquitBrown3.bmp	 9	 7	 0	 u	 1	 0	 1050.15	 9.13	 9.89	 
bmem_snacks_113	 0	 1	 03	 1	 82	 4.080242e+02	 BisliOnion.bmp	 ChocolateParaSucariotKoftzot2.bmp	 48	 47	 0	 i	 2	 1	 1015.98	 1.60	 1.64	 
bmem_snacks_113	 0	 1	 03	 1	 83	 4.110109e+02	 ChocolateParaMarir2.bmp	 CrunchShokoVanil.bmp	 43	 44	 0	 u	 2	 0	 717.21	 1.73	 1.71	 
bmem_snacks_113	 0	 1	 03	 1	 84	 4.180187e+02	 Loacker.bmp	 ChocolateParaCookies5.bmp	 14	 13	 0	 i	 1	 1	 685.44	 8.11	 9.02	 
