subjectID	scanner	order	block	run	trial	onsettime	ImageLeft	ImageRight	bidIndexLeft	bidIndexRight	IsleftGo	Response	PairType	Outcome	RT	bidLeft	bidRight	
caau_snacks_909	 0	 1	 02	 1	 1	 2.032562e+00	 Ghiradelli_milk_Almonds.bmp	 ChipsAhoy_small.bmp	 10	 16	 1	 i	 1	 0	 1086.14	 2.27	 2.02	 
caau_snacks_909	 0	 1	 02	 1	 2	 7.030614e+00	 AnimalCrackers.bmp	 Keeblerfudgestripes.bmp	 13	 9	 1	 i	 1	 0	 884.77	 2.02	 2.32	 
caau_snacks_909	 0	 1	 02	 1	 3	 1.002931e+01	 AnimalCrackers.bmp	 ChipsAhoy_small.bmp	 13	 16	 1	 i	 1	 0	 777.58	 2.02	 2.02	 
caau_snacks_909	 0	 1	 02	 1	 4	 1.702599e+01	 Chocolate_mm.bmp	 Ghiradelli_milk_Almonds.bmp	 17	 10	 0	 u	 1	 0	 1193.54	 2.02	 2.27	 
caau_snacks_909	 0	 1	 02	 1	 5	 2.102438e+01	 Twinkie.bmp	 PopTartsCinnamon.bmp	 50	 49	 1	 u	 2	 1	 871.88	 1.51	 1.52	 
caau_snacks_909	 0	 1	 02	 1	 6	 3.003703e+01	 Milkduds.bmp	 CheesyDoritos.bmp	 11	 15	 0	 i	 1	 1	 744.96	 2.02	 2.02	 
caau_snacks_909	 0	 1	 02	 1	 7	 3.303587e+01	 Nutterbutter.bmp	 SourSkittles.bmp	 47	 43	 1	 u	 2	 1	 1083.82	 1.54	 1.55	 
caau_snacks_909	 0	 1	 02	 1	 8	 3.703406e+01	 Butterfinger.bmp	 Slimjim.bmp	 39	 40	 1	 u	 5	 1	 1092.13	 1.71	 1.71	 
caau_snacks_909	 0	 1	 02	 1	 9	 4.303136e+01	 Keeblerfudgestripes.bmp	 FrootLoops.bmp	 9	 18	 0	 u	 1	 0	 960.50	 2.32	 2.02	 
caau_snacks_909	 0	 1	 02	 1	 10	 4.603002e+01	 Doritosranch.bmp	 Oreos.bmp	 12	 8	 1	 i	 1	 0	 827.41	 2.02	 2.33	 
caau_snacks_909	 0	 1	 02	 1	 11	 5.102792e+01	 100grand_small.bmp	 PringlesRed.bmp	 46	 52	 0	 u	 2	 0	 1064.18	 1.54	 1.50	 
caau_snacks_909	 0	 1	 02	 1	 12	 5.702522e+01	 Nutterbutter.bmp	 Lollipopred.bmp	 47	 54	 1	 u	 2	 1	 760.69	 1.54	 1.01	 
caau_snacks_909	 0	 1	 02	 1	 13	 6.002396e+01	 Nutterbutter.bmp	 PopTartsCinnamon.bmp	 47	 49	 1	 u	 2	 1	 1051.24	 1.54	 1.52	 
caau_snacks_909	 0	 1	 02	 1	 14	 6.903649e+01	 Lollipopred.bmp	 Funyuns_small.bmp	 54	 53	 0	 i	 2	 1	 774.95	 1.01	 1.32	 
caau_snacks_909	 0	 1	 02	 1	 15	 7.503403e+01	 Twix.bmp	 Lollipopred.bmp	 45	 54	 1	 u	 2	 1	 937.91	 1.54	 1.01	 
caau_snacks_909	 0	 1	 02	 1	 16	 8.303059e+01	 CheesyDoritos.bmp	 ChipsAhoy_small.bmp	 15	 16	 1	 u	 1	 1	 924.76	 2.02	 2.02	 
caau_snacks_909	 0	 1	 02	 1	 17	 8.602935e+01	 Milkduds.bmp	 FrootLoops.bmp	 11	 18	 0	 i	 1	 1	 1230.27	 2.02	 2.02	 
caau_snacks_909	 0	 1	 02	 1	 18	 9.102710e+01	 Twinkie.bmp	 Laffytaffyred_one.bmp	 50	 51	 1	 u	 2	 1	 776.21	 1.51	 1.51	 
caau_snacks_909	 0	 1	 02	 1	 19	 9.402558e+01	 FrootLoops.bmp	 Almondjoy.bmp	 18	 14	 1	 i	 1	 0	 716.14	 2.02	 2.02	 
caau_snacks_909	 0	 1	 02	 1	 20	 9.702439e+01	 Milano.bmp	 ChipsAhoy_small.bmp	 7	 16	 1	 u	 1	 1	 588.85	 2.52	 2.02	 
caau_snacks_909	 0	 1	 02	 1	 21	 1.030384e+02	 Riprolls.bmp	 KitKat_small.bmp	 42	 41	 1	 i	 5	 0	 723.27	 1.55	 1.67	 
caau_snacks_909	 0	 1	 02	 1	 22	 1.100354e+02	 Doritosranch.bmp	 Almondjoy.bmp	 12	 14	 1	 u	 1	 1	 790.66	 2.02	 2.02	 
caau_snacks_909	 0	 1	 02	 1	 23	 1.150331e+02	 PopTartsCinnamon.bmp	 Twix.bmp	 49	 45	 0	 i	 2	 1	 787.35	 1.52	 1.54	 
caau_snacks_909	 0	 1	 02	 1	 24	 1.200310e+02	 Chocolate_mm.bmp	 Doritosranch.bmp	 17	 12	 0	 u	 1	 0	 990.72	 2.02	 2.02	 
caau_snacks_909	 0	 1	 02	 1	 25	 1.230291e+02	 Doritosranch.bmp	 Milkduds.bmp	 12	 11	 1	 i	 1	 0	 1354.17	 2.02	 2.02	 
caau_snacks_909	 0	 1	 02	 1	 26	 1.280272e+02	 CheesyDoritos.bmp	 Almondjoy.bmp	 15	 14	 1	 u	 1	 1	 739.39	 2.02	 2.02	 
caau_snacks_909	 0	 1	 02	 1	 27	 1.340246e+02	 Cheetos.bmp	 Fritos.bmp	 22	 21	 1	 i	 4	 0	 1057.50	 2.01	 2.01	 
caau_snacks_909	 0	 1	 02	 1	 28	 1.380397e+02	 Chocolate_mm.bmp	 CheesyDoritos.bmp	 17	 15	 0	 i	 1	 1	 1139.63	 2.02	 2.02	 
caau_snacks_909	 0	 1	 02	 1	 29	 1.480354e+02	 Goldfish.bmp	 Lollipopred.bmp	 44	 54	 1	 u	 2	 1	 1116.00	 1.55	 1.01	 
caau_snacks_909	 0	 1	 02	 1	 30	 1.510340e+02	 Laffytaffyred_one.bmp	 Funyuns_small.bmp	 51	 53	 0	 i	 2	 1	 754.60	 1.51	 1.32	 
caau_snacks_909	 0	 1	 02	 1	 31	 1.540327e+02	 PopTartsCinnamon.bmp	 Funyuns_small.bmp	 49	 53	 0	 u	 2	 0	 933.28	 1.52	 1.32	 
caau_snacks_909	 0	 1	 02	 1	 32	 1.660275e+02	 Doritosranch.bmp	 Keeblerfudgestripes.bmp	 12	 9	 1	 i	 1	 0	 1023.36	 2.02	 2.32	 
caau_snacks_909	 0	 1	 02	 1	 33	 1.700257e+02	 FrootLoops.bmp	 ChipsAhoy_small.bmp	 18	 16	 1	 i	 1	 0	 1034.26	 2.02	 2.02	 
caau_snacks_909	 0	 1	 02	 1	 34	 1.740237e+02	 Laffytaffyred_one.bmp	 Nutterbutter.bmp	 51	 47	 0	 i	 2	 1	 853.87	 1.51	 1.54	 
caau_snacks_909	 0	 1	 02	 1	 35	 1.770393e+02	 Slimjim.bmp	 Butterfinger.bmp	 40	 39	 0	 i	 5	 1	 781.92	 1.71	 1.71	 
caau_snacks_909	 0	 1	 02	 1	 36	 1.850358e+02	 100grand_small.bmp	 Twinkie.bmp	 46	 50	 0	 u	 2	 0	 827.36	 1.54	 1.51	 
caau_snacks_909	 0	 1	 02	 1	 37	 1.900336e+02	 ChipsAhoy_small.bmp	 Doritosranch.bmp	 16	 12	 0	 u	 1	 0	 1035.63	 2.02	 2.02	 
caau_snacks_909	 0	 1	 02	 1	 38	 1.970303e+02	 Almondjoy.bmp	 Ghiradelli_milk_Almonds.bmp	 14	 10	 0	 u	 1	 0	 1010.10	 2.02	 2.27	 
caau_snacks_909	 0	 1	 02	 1	 39	 2.000292e+02	 SourSkittles.bmp	 Goldfish.bmp	 43	 44	 0	 u	 2	 0	 1068.48	 1.55	 1.55	 
caau_snacks_909	 0	 1	 02	 1	 40	 2.070260e+02	 Goldfish.bmp	 Snickers.bmp	 44	 48	 1	 i	 2	 0	 1002.19	 1.55	 1.53	 
caau_snacks_909	 0	 1	 02	 1	 41	 2.130401e+02	 Keeblerfudgestripes.bmp	 Ghiradelli_milk_Almonds.bmp	 9	 10	 0	 u	 1	 0	 1143.46	 2.32	 2.27	 
caau_snacks_909	 0	 1	 02	 1	 42	 2.170384e+02	 KitKat_small.bmp	 Riprolls.bmp	 41	 42	 0	 u	 5	 0	 986.22	 1.67	 1.55	 
caau_snacks_909	 0	 1	 02	 1	 43	 2.210364e+02	 Lollipopred.bmp	 PringlesRed.bmp	 54	 52	 0	 i	 2	 1	 691.50	 1.01	 1.50	 
caau_snacks_909	 0	 1	 02	 1	 44	 2.240350e+02	 Snickers.bmp	 PringlesRed.bmp	 48	 52	 0	 u	 2	 0	 838.88	 1.53	 1.50	 
caau_snacks_909	 0	 1	 02	 1	 45	 2.270339e+02	 Snickers.bmp	 Twix.bmp	 48	 45	 0	 u	 2	 0	 1413.97	 1.53	 1.54	 
caau_snacks_909	 0	 1	 02	 1	 46	 2.330314e+02	 Cheezits.bmp	 Dots_one.bmp	 20	 19	 0	 i	 4	 1	 1216.85	 2.01	 2.01	 
caau_snacks_909	 0	 1	 02	 1	 47	 2.360299e+02	 Funyuns_small.bmp	 100grand_small.bmp	 53	 46	 1	 i	 2	 0	 880.32	 1.32	 1.54	 
caau_snacks_909	 0	 1	 02	 1	 48	 2.410277e+02	 Snickers.bmp	 Funyuns_small.bmp	 48	 53	 0	 u	 2	 0	 1067.04	 1.53	 1.32	 
caau_snacks_909	 0	 1	 02	 1	 49	 2.440265e+02	 SourSkittles.bmp	 Twinkie.bmp	 43	 50	 0	 i	 2	 1	 1249.31	 1.55	 1.51	 
caau_snacks_909	 0	 1	 02	 1	 50	 2.500238e+02	 Laffytaffyred_one.bmp	 Twix.bmp	 51	 45	 0	 i	 2	 1	 843.12	 1.51	 1.54	 
caau_snacks_909	 0	 1	 02	 1	 51	 2.530229e+02	 PopTartsCinnamon.bmp	 PringlesRed.bmp	 49	 52	 0	 i	 2	 1	 863.57	 1.52	 1.50	 
caau_snacks_909	 0	 1	 02	 1	 52	 2.580370e+02	 FrootLoops.bmp	 Chocolate_mm.bmp	 18	 17	 1	 i	 1	 0	 973.98	 2.02	 2.02	 
caau_snacks_909	 0	 1	 02	 1	 53	 2.680327e+02	 Milkduds.bmp	 Ghiradelli_milk_Almonds.bmp	 11	 10	 0	 i	 1	 1	 1144.23	 2.02	 2.27	 
caau_snacks_909	 0	 1	 02	 1	 54	 2.730304e+02	 Goldfish.bmp	 100grand_small.bmp	 44	 46	 1	 i	 2	 0	 1164.14	 1.55	 1.54	 
caau_snacks_909	 0	 1	 02	 1	 55	 2.770288e+02	 Milano.bmp	 Milkduds.bmp	 7	 11	 1	 u	 1	 1	 1085.48	 2.52	 2.02	 
caau_snacks_909	 0	 1	 02	 1	 56	 2.800273e+02	 CheesyDoritos.bmp	 Oreos.bmp	 15	 8	 1	 i	 1	 0	 1022.77	 2.02	 2.33	 
caau_snacks_909	 0	 1	 02	 1	 57	 2.830261e+02	 Dots_one.bmp	 Cheezits.bmp	 19	 20	 1	 u	 4	 1	 1181.32	 2.01	 2.01	 
caau_snacks_909	 0	 1	 02	 1	 58	 2.890398e+02	 Lollipopred.bmp	 Twinkie.bmp	 54	 50	 0	 i	 2	 1	 1072.78	 1.01	 1.51	 
caau_snacks_909	 0	 1	 02	 1	 59	 2.920387e+02	 Funyuns_small.bmp	 SourSkittles.bmp	 53	 43	 1	 i	 2	 0	 928.46	 1.32	 1.55	 
caau_snacks_909	 0	 1	 02	 1	 60	 2.980360e+02	 AnimalCrackers.bmp	 Oreos.bmp	 13	 8	 1	 i	 1	 0	 939.79	 2.02	 2.33	 
caau_snacks_909	 0	 1	 02	 1	 61	 3.110304e+02	 100grand_small.bmp	 Nutterbutter.bmp	 46	 47	 0	 u	 2	 0	 983.77	 1.54	 1.54	 
caau_snacks_909	 0	 1	 02	 1	 62	 3.150288e+02	 Laffytaffyred_one.bmp	 PringlesRed.bmp	 51	 52	 0	 i	 2	 1	 892.43	 1.51	 1.50	 
caau_snacks_909	 0	 1	 02	 1	 63	 3.190268e+02	 FrootLoops.bmp	 Oreos.bmp	 18	 8	 1	 i	 1	 0	 870.29	 2.02	 2.33	 
caau_snacks_909	 0	 1	 02	 1	 64	 3.230248e+02	 CheesyDoritos.bmp	 Keeblerfudgestripes.bmp	 15	 9	 1	 u	 1	 1	 1296.43	 2.02	 2.32	 
caau_snacks_909	 0	 1	 02	 1	 65	 3.270400e+02	 Twinkie.bmp	 Snickers.bmp	 50	 48	 1	 u	 2	 1	 1001.70	 1.51	 1.53	 
caau_snacks_909	 0	 1	 02	 1	 66	 3.310383e+02	 Chocolate_mm.bmp	 AnimalCrackers.bmp	 17	 13	 0	 u	 1	 0	 1036.58	 2.02	 2.02	 
caau_snacks_909	 0	 1	 02	 1	 67	 3.390346e+02	 Laffytaffyred_one.bmp	 Goldfish.bmp	 51	 44	 0	 i	 2	 1	 863.28	 1.51	 1.55	 
caau_snacks_909	 0	 1	 02	 1	 68	 3.420336e+02	 SourSkittles.bmp	 PringlesRed.bmp	 43	 52	 0	 u	 2	 0	 1172.86	 1.55	 1.50	 
caau_snacks_909	 0	 1	 02	 1	 69	 3.470313e+02	 Nutterbutter.bmp	 Snickers.bmp	 47	 48	 1	 i	 2	 0	 1162.05	 1.54	 1.53	 
caau_snacks_909	 0	 1	 02	 1	 70	 3.510296e+02	 Ghiradelli_milk_Almonds.bmp	 Oreos.bmp	 10	 8	 1	 i	 1	 0	 1379.75	 2.27	 2.33	 
caau_snacks_909	 0	 1	 02	 1	 71	 3.540280e+02	 Milkduds.bmp	 AnimalCrackers.bmp	 11	 13	 0	 u	 1	 0	 1087.32	 2.02	 2.02	 
caau_snacks_909	 0	 1	 02	 1	 72	 3.590261e+02	 Goldfish.bmp	 PopTartsCinnamon.bmp	 44	 49	 1	 i	 2	 0	 1462.73	 1.55	 1.52	 
caau_snacks_909	 0	 1	 02	 1	 73	 3.640237e+02	 Milano.bmp	 Almondjoy.bmp	 7	 14	 1	 u	 1	 1	 952.01	 2.52	 2.02	 
caau_snacks_909	 0	 1	 02	 1	 74	 3.690382e+02	 Fritos.bmp	 Cheetos.bmp	 21	 22	 0	 u	 4	 0	 981.18	 2.01	 2.01	 
caau_snacks_909	 0	 1	 02	 1	 75	 3.730365e+02	 AnimalCrackers.bmp	 Almondjoy.bmp	 13	 14	 1	 i	 1	 0	 740.55	 2.02	 2.02	 
caau_snacks_909	 0	 1	 02	 1	 76	 3.770347e+02	 Keeblerfudgestripes.bmp	 Milano.bmp	 9	 7	 0	 i	 1	 1	 1442.27	 2.32	 2.52	 
caau_snacks_909	 0	 1	 02	 1	 77	 3.820325e+02	 100grand_small.bmp	 Twix.bmp	 46	 45	 0	 u	 2	 0	 1357.53	 1.54	 1.54	 
caau_snacks_909	 0	 1	 02	 1	 78	 3.860309e+02	 Chocolate_mm.bmp	 Milano.bmp	 17	 7	 0	 i	 1	 1	 1270.20	 2.02	 2.52	 
caau_snacks_909	 0	 1	 02	 1	 79	 3.930276e+02	 Oreos.bmp	 Milano.bmp	 8	 7	 0	 u	 1	 0	 847.02	 2.33	 2.52	 
caau_snacks_909	 0	 1	 02	 1	 80	 3.980256e+02	 Twix.bmp	 SourSkittles.bmp	 45	 43	 1	 u	 2	 1	 1093.86	 1.54	 1.55	 
