subjectID	scanner	order	block	run	trial	onsettime	ImageLeft	ImageRight	bidIndexLeft	bidIndexRight	IsleftGo	Response	PairType	Outcome	RT	bidLeft	bidRight	
caau_snacks_910	 0	 2	 01	 1	 1	 2.032924e+00	 Fritos.bmp	 100grand_small.bmp	 47	 51	 0	 u	 2	 0	 837.46	 1.01	 1.00	 
caau_snacks_910	 0	 2	 01	 1	 2	 1.302900e+01	 Twinkie.bmp	 Milkduds.bmp	 50	 49	 0	 u	 2	 0	 870.86	 1.00	 1.00	 
caau_snacks_910	 0	 2	 01	 1	 3	 1.604503e+01	 Fritos.bmp	 Laysclassic.bmp	 47	 46	 0	 u	 2	 0	 937.42	 1.01	 1.01	 
caau_snacks_910	 0	 2	 01	 1	 4	 2.104363e+01	 Doritosranch.bmp	 ChipsAhoy_small.bmp	 40	 39	 1	 u	 5	 1	 1012.88	 1.02	 1.02	 
caau_snacks_910	 0	 2	 01	 1	 5	 2.804153e+01	 Chocolate_mm.bmp	 Jollyrancherred.bmp	 52	 54	 0	 u	 2	 0	 781.43	 1.00	 0.52	 
caau_snacks_910	 0	 2	 01	 1	 6	 3.503964e+01	 SnoBall.bmp	 Keeblerfudgestripes.bmp	 16	 18	 1	 i	 1	 0	 1117.14	 1.52	 1.51	 
caau_snacks_910	 0	 2	 01	 1	 7	 4.803539e+01	 Slimjim.bmp	 TeddyGrahamschocolate.bmp	 14	 12	 1	 i	 1	 0	 1248.59	 1.55	 1.57	 
caau_snacks_910	 0	 2	 01	 1	 8	 5.403351e+01	 Almondjoy.bmp	 100grand_small.bmp	 53	 51	 0	 i	 2	 1	 1197.96	 0.99	 1.00	 
caau_snacks_910	 0	 2	 01	 1	 9	 5.903221e+01	 Oreos.bmp	 Cupcakes.bmp	 17	 7	 1	 u	 1	 1	 1166.02	 1.51	 2.01	 
caau_snacks_910	 0	 2	 01	 1	 10	 6.503057e+01	 MilkyWay.bmp	 Almondjoy.bmp	 48	 53	 1	 u	 2	 1	 944.65	 1.00	 0.99	 
caau_snacks_910	 0	 2	 01	 1	 11	 6.802958e+01	 MrGoodbar.bmp	 Jollyrancherred.bmp	 44	 54	 0	 u	 2	 0	 1277.65	 1.01	 0.52	 
caau_snacks_910	 0	 2	 01	 1	 12	 7.104539e+01	 FigNewton_small.bmp	 FamousAmos_small.bmp	 20	 19	 1	 x	 4	 999	 999000.00	 1.50	 1.51	 
caau_snacks_910	 0	 2	 01	 1	 13	 8.404126e+01	 PopTartsStrawberry.bmp	 TeddyGrahamschocolate.bmp	 9	 12	 1	 i	 1	 0	 831.43	 2.00	 1.57	 
caau_snacks_910	 0	 2	 01	 1	 14	 8.804007e+01	 TeddyGrahamschocolate.bmp	 SnoBall.bmp	 12	 16	 0	 u	 1	 0	 623.00	 1.57	 1.52	 
caau_snacks_910	 0	 2	 01	 1	 15	 9.103933e+01	 Ghiradelli_milk.bmp	 TeddyGrahamschocolate.bmp	 8	 12	 1	 i	 1	 0	 615.36	 2.00	 1.57	 
caau_snacks_910	 0	 2	 01	 1	 16	 9.403839e+01	 Oreos.bmp	 PopTartsCinnamon.bmp	 17	 10	 1	 u	 1	 1	 866.59	 1.51	 1.99	 
caau_snacks_910	 0	 2	 01	 1	 17	 9.803716e+01	 Fritos.bmp	 Jollyrancherred.bmp	 47	 54	 0	 u	 2	 0	 699.57	 1.01	 0.52	 
caau_snacks_910	 0	 2	 01	 1	 18	 1.050352e+02	 SnoBall.bmp	 Cupcakes.bmp	 16	 7	 1	 i	 1	 0	 959.11	 1.52	 2.01	 
caau_snacks_910	 0	 2	 01	 1	 19	 1.130326e+02	 MilkyWay.bmp	 MrGoodbar.bmp	 48	 44	 1	 u	 2	 1	 762.65	 1.00	 1.01	 
caau_snacks_910	 0	 2	 01	 1	 20	 1.160318e+02	 Butterfinger.bmp	 MilkyWay.bmp	 45	 48	 0	 u	 2	 0	 969.59	 1.01	 1.00	 
caau_snacks_910	 0	 2	 01	 1	 21	 1.210283e+02	 AnimalCrackers.bmp	 SnoBall.bmp	 13	 16	 0	 u	 1	 0	 873.95	 1.57	 1.52	 
caau_snacks_910	 0	 2	 01	 1	 22	 1.250286e+02	 SnoBall.bmp	 HoHo.bmp	 16	 15	 1	 i	 1	 0	 808.32	 1.52	 1.53	 
caau_snacks_910	 0	 2	 01	 1	 23	 1.290446e+02	 HoHo.bmp	 Oreos.bmp	 15	 17	 0	 i	 1	 1	 716.12	 1.53	 1.51	 
caau_snacks_910	 0	 2	 01	 1	 24	 1.320436e+02	 Jollyrancherred.bmp	 Twinkie.bmp	 54	 50	 1	 i	 2	 0	 759.68	 0.52	 1.00	 
caau_snacks_910	 0	 2	 01	 1	 25	 1.350428e+02	 PopTartsStrawberry.bmp	 AnimalCrackers.bmp	 9	 13	 1	 i	 1	 0	 1255.50	 2.00	 1.57	 
caau_snacks_910	 0	 2	 01	 1	 26	 1.420282e+02	 Milkduds.bmp	 Fritos.bmp	 49	 47	 1	 x	 2	 999	 999000.00	 1.00	 1.01	 
caau_snacks_910	 0	 2	 01	 1	 27	 1.450398e+02	 Laysclassic.bmp	 Chocolate_mm.bmp	 46	 52	 1	 u	 2	 1	 948.90	 1.01	 1.00	 
caau_snacks_910	 0	 2	 01	 1	 28	 1.490387e+02	 Milkduds.bmp	 Almondjoy.bmp	 49	 53	 1	 u	 2	 1	 984.91	 1.00	 0.99	 
caau_snacks_910	 0	 2	 01	 1	 29	 1.530374e+02	 MilkyWay.bmp	 Chocolate_mm.bmp	 48	 52	 1	 u	 2	 1	 653.01	 1.00	 1.00	 
caau_snacks_910	 0	 2	 01	 1	 30	 1.570362e+02	 TeddyGrahamschocolate.bmp	 Streusel.bmp	 12	 11	 0	 u	 1	 0	 686.70	 1.57	 1.99	 
caau_snacks_910	 0	 2	 01	 1	 31	 1.630342e+02	 Ghiradelli_milk.bmp	 Cupcakes.bmp	 8	 7	 1	 i	 1	 0	 1101.00	 2.00	 2.01	 
caau_snacks_910	 0	 2	 01	 1	 32	 1.660335e+02	 Almondjoy.bmp	 Jollyrancherred.bmp	 53	 54	 0	 u	 2	 0	 662.27	 0.99	 0.52	 
caau_snacks_910	 0	 2	 01	 1	 33	 1.690324e+02	 Cupcakes.bmp	 PopTartsStrawberry.bmp	 7	 9	 0	 u	 1	 0	 1219.65	 2.01	 2.00	 
caau_snacks_910	 0	 2	 01	 1	 34	 1.750308e+02	 Streusel.bmp	 PopTartsCinnamon.bmp	 11	 10	 1	 i	 1	 0	 1074.81	 1.99	 1.99	 
caau_snacks_910	 0	 2	 01	 1	 35	 1.780298e+02	 Butterfinger.bmp	 Sourpatch.bmp	 45	 43	 0	 u	 2	 0	 1398.32	 1.01	 1.01	 
caau_snacks_910	 0	 2	 01	 1	 36	 1.820454e+02	 AnimalCrackers.bmp	 Oreos.bmp	 13	 17	 0	 u	 1	 0	 855.48	 1.57	 1.51	 
caau_snacks_910	 0	 2	 01	 1	 37	 1.880437e+02	 Doritosranch.bmp	 ChipsAhoy_small.bmp	 40	 39	 1	 i	 5	 0	 1193.37	 1.02	 1.02	 
caau_snacks_910	 0	 2	 01	 1	 38	 1.920423e+02	 KitKat_small.bmp	 Funyuns_small.bmp	 21	 22	 1	 u	 4	 1	 994.11	 1.50	 1.48	 
caau_snacks_910	 0	 2	 01	 1	 39	 1.950414e+02	 Chocolate_mm.bmp	 Sourpatch.bmp	 52	 43	 0	 i	 2	 1	 1137.98	 1.00	 1.01	 
caau_snacks_910	 0	 2	 01	 1	 40	 1.980404e+02	 Ghiradelli_milk.bmp	 Keeblerfudgestripes.bmp	 8	 18	 1	 i	 1	 0	 1008.36	 2.00	 1.51	 
caau_snacks_910	 0	 2	 01	 1	 41	 2.020393e+02	 PopTartsCinnamon.bmp	 PopTartsStrawberry.bmp	 10	 9	 0	 i	 1	 1	 946.44	 1.99	 2.00	 
caau_snacks_910	 0	 2	 01	 1	 42	 2.060381e+02	 SnoBall.bmp	 PopTartsCinnamon.bmp	 16	 10	 1	 i	 1	 0	 775.06	 1.52	 1.99	 
caau_snacks_910	 0	 2	 01	 1	 43	 2.130361e+02	 Ghiradelli_milk.bmp	 PopTartsCinnamon.bmp	 8	 10	 1	 i	 1	 0	 1208.70	 2.00	 1.99	 
caau_snacks_910	 0	 2	 01	 1	 44	 2.160349e+02	 100grand_small.bmp	 Twinkie.bmp	 51	 50	 1	 i	 2	 0	 944.68	 1.00	 1.00	 
caau_snacks_910	 0	 2	 01	 1	 45	 2.220333e+02	 Laysclassic.bmp	 Butterfinger.bmp	 46	 45	 1	 u	 2	 1	 1221.12	 1.01	 1.01	 
caau_snacks_910	 0	 2	 01	 1	 46	 2.250324e+02	 Cupcakes.bmp	 Slimjim.bmp	 7	 14	 0	 i	 1	 1	 889.27	 2.01	 1.55	 
caau_snacks_910	 0	 2	 01	 1	 47	 2.280314e+02	 Chocolate_mm.bmp	 100grand_small.bmp	 52	 51	 0	 u	 2	 0	 1208.56	 1.00	 1.00	 
caau_snacks_910	 0	 2	 01	 1	 48	 2.310307e+02	 Ghiradelli_milk.bmp	 HoHo.bmp	 8	 15	 1	 i	 1	 0	 921.38	 2.00	 1.53	 
caau_snacks_910	 0	 2	 01	 1	 49	 2.340298e+02	 TeddyGrahamschocolate.bmp	 Oreos.bmp	 12	 17	 0	 u	 1	 0	 1088.39	 1.57	 1.51	 
caau_snacks_910	 0	 2	 01	 1	 50	 2.410443e+02	 Almondjoy.bmp	 Laysclassic.bmp	 53	 46	 0	 x	 2	 999	 999000.00	 0.99	 1.01	 
caau_snacks_910	 0	 2	 01	 1	 51	 2.510420e+02	 MrGoodbar.bmp	 Sourpatch.bmp	 44	 43	 0	 u	 2	 0	 756.60	 1.01	 1.01	 
caau_snacks_910	 0	 2	 01	 1	 52	 2.570284e+02	 Streusel.bmp	 Keeblerfudgestripes.bmp	 11	 18	 1	 i	 1	 0	 666.88	 1.99	 1.51	 
caau_snacks_910	 0	 2	 01	 1	 53	 2.600387e+02	 FamousAmos_small.bmp	 FigNewton_small.bmp	 19	 20	 0	 i	 4	 1	 715.57	 1.51	 1.50	 
caau_snacks_910	 0	 2	 01	 1	 54	 2.670365e+02	 Fritos.bmp	 MilkyWay.bmp	 47	 48	 0	 u	 2	 0	 812.25	 1.01	 1.00	 
caau_snacks_910	 0	 2	 01	 1	 55	 2.700356e+02	 HoHo.bmp	 Slimjim.bmp	 15	 14	 0	 i	 1	 1	 943.62	 1.53	 1.55	 
caau_snacks_910	 0	 2	 01	 1	 56	 2.740345e+02	 Slimjim.bmp	 AnimalCrackers.bmp	 14	 13	 1	 i	 1	 0	 1086.89	 1.55	 1.57	 
caau_snacks_910	 0	 2	 01	 1	 57	 2.770336e+02	 Laffytaffyred_one.bmp	 SourSkittles.bmp	 42	 41	 0	 i	 5	 1	 898.10	 1.02	 1.02	 
caau_snacks_910	 0	 2	 01	 1	 58	 2.810321e+02	 MrGoodbar.bmp	 Milkduds.bmp	 44	 49	 0	 u	 2	 0	 1003.42	 1.01	 1.00	 
caau_snacks_910	 0	 2	 01	 1	 59	 2.850311e+02	 Streusel.bmp	 HoHo.bmp	 11	 15	 1	 i	 1	 0	 870.22	 1.99	 1.53	 
caau_snacks_910	 0	 2	 01	 1	 60	 2.920457e+02	 Butterfinger.bmp	 100grand_small.bmp	 45	 51	 0	 i	 2	 1	 781.68	 1.01	 1.00	 
caau_snacks_910	 0	 2	 01	 1	 61	 2.960445e+02	 Streusel.bmp	 AnimalCrackers.bmp	 11	 13	 1	 i	 1	 0	 845.62	 1.99	 1.57	 
caau_snacks_910	 0	 2	 01	 1	 62	 3.010430e+02	 Almondjoy.bmp	 Sourpatch.bmp	 53	 43	 0	 i	 2	 1	 970.75	 0.99	 1.01	 
caau_snacks_910	 0	 2	 01	 1	 63	 3.050417e+02	 Twinkie.bmp	 Sourpatch.bmp	 50	 43	 0	 i	 2	 1	 711.11	 1.00	 1.01	 
caau_snacks_910	 0	 2	 01	 1	 64	 3.080406e+02	 Keeblerfudgestripes.bmp	 Slimjim.bmp	 18	 14	 0	 u	 1	 0	 954.82	 1.51	 1.55	 
caau_snacks_910	 0	 2	 01	 1	 65	 3.150387e+02	 Fritos.bmp	 Sourpatch.bmp	 47	 43	 0	 u	 2	 0	 734.96	 1.01	 1.01	 
caau_snacks_910	 0	 2	 01	 1	 66	 3.220368e+02	 Slimjim.bmp	 PopTartsCinnamon.bmp	 14	 10	 1	 i	 1	 0	 1052.74	 1.55	 1.99	 
caau_snacks_910	 0	 2	 01	 1	 67	 3.260352e+02	 SourSkittles.bmp	 Laffytaffyred_one.bmp	 41	 42	 1	 u	 5	 1	 1183.66	 1.02	 1.02	 
caau_snacks_910	 0	 2	 01	 1	 68	 3.300344e+02	 Funyuns_small.bmp	 KitKat_small.bmp	 22	 21	 0	 i	 4	 1	 1050.93	 1.48	 1.50	 
caau_snacks_910	 0	 2	 01	 1	 69	 3.360324e+02	 MilkyWay.bmp	 Twinkie.bmp	 48	 50	 1	 u	 2	 1	 811.53	 1.00	 1.00	 
caau_snacks_910	 0	 2	 01	 1	 70	 3.400313e+02	 Cupcakes.bmp	 Streusel.bmp	 7	 11	 0	 i	 1	 1	 985.63	 2.01	 1.99	 
caau_snacks_910	 0	 2	 01	 1	 71	 3.520443e+02	 Butterfinger.bmp	 Milkduds.bmp	 45	 49	 0	 i	 2	 1	 1088.63	 1.01	 1.00	 
caau_snacks_910	 0	 2	 01	 1	 72	 3.610416e+02	 PopTartsStrawberry.bmp	 HoHo.bmp	 9	 15	 1	 u	 1	 1	 907.07	 2.00	 1.53	 
caau_snacks_910	 0	 2	 01	 1	 73	 3.640407e+02	 Twinkie.bmp	 Laysclassic.bmp	 50	 46	 0	 i	 2	 1	 1349.84	 1.00	 1.01	 
caau_snacks_910	 0	 2	 01	 1	 74	 3.690393e+02	 Laysclassic.bmp	 MrGoodbar.bmp	 46	 44	 1	 u	 2	 1	 1145.04	 1.01	 1.01	 
caau_snacks_910	 0	 2	 01	 1	 75	 3.720385e+02	 Jollyrancherred.bmp	 Butterfinger.bmp	 54	 45	 1	 i	 2	 0	 1068.06	 0.52	 1.01	 
caau_snacks_910	 0	 2	 01	 1	 76	 3.790364e+02	 MrGoodbar.bmp	 100grand_small.bmp	 44	 51	 0	 u	 2	 0	 1048.74	 1.01	 1.00	 
caau_snacks_910	 0	 2	 01	 1	 77	 3.830350e+02	 AnimalCrackers.bmp	 Ghiradelli_milk.bmp	 13	 8	 0	 u	 1	 0	 781.62	 1.57	 2.00	 
caau_snacks_910	 0	 2	 01	 1	 78	 3.870340e+02	 Milkduds.bmp	 Chocolate_mm.bmp	 49	 52	 1	 u	 2	 1	 924.63	 1.00	 1.00	 
caau_snacks_910	 0	 2	 01	 1	 79	 3.900328e+02	 PopTartsStrawberry.bmp	 Keeblerfudgestripes.bmp	 9	 18	 1	 u	 1	 1	 931.13	 2.00	 1.51	 
caau_snacks_910	 0	 2	 01	 1	 80	 3.980306e+02	 Keeblerfudgestripes.bmp	 Oreos.bmp	 18	 17	 0	 u	 1	 0	 580.29	 1.51	 1.51	 
