subjectID	scanner	order	block	run	trial	onsettime	ImageLeft	ImageRight	bidIndexLeft	bidIndexRight	IsleftGo	Response	PairType	Outcome	RT	bidLeft	bidRight	
caau_snacks_913	 0	 1	 02	 1	 1	 2.032919e+00	 Lollipopred.bmp	 Cupcakes.bmp	 53	 49	 1	 u	 2	 1	 1078.84	 0.27	 0.56	 
caau_snacks_913	 0	 1	 02	 1	 2	 7.031048e+00	 Cheezits.bmp	 ChipsAhoy_small.bmp	 14	 10	 0	 i	 1	 1	 951.34	 2.51	 2.63	 
caau_snacks_913	 0	 1	 02	 1	 3	 1.004635e+01	 Slimjim.bmp	 Toberlorone.bmp	 15	 11	 1	 i	 1	 0	 716.27	 2.50	 2.57	 
caau_snacks_913	 0	 1	 02	 1	 4	 1.704390e+01	 Ghiradelli_milk_Almonds.bmp	 Cheezits.bmp	 18	 14	 1	 u	 1	 1	 915.98	 2.24	 2.51	 
caau_snacks_913	 0	 1	 02	 1	 5	 2.104251e+01	 Slimjim.bmp	 PeanutMMs.bmp	 15	 8	 1	 i	 1	 0	 702.43	 2.50	 2.76	 
caau_snacks_913	 0	 1	 02	 1	 6	 3.003934e+01	 Lollipopred.bmp	 Goldfish.bmp	 53	 48	 1	 i	 2	 0	 791.62	 0.27	 0.56	 
caau_snacks_913	 0	 1	 02	 1	 7	 3.303814e+01	 Chocolate_mm.bmp	 MrGoodbar.bmp	 17	 7	 0	 i	 1	 1	 1156.11	 2.49	 2.79	 
caau_snacks_913	 0	 1	 02	 1	 8	 3.703676e+01	 PeanutMMs.bmp	 FrootLoops.bmp	 8	 12	 0	 u	 1	 0	 994.30	 2.76	 2.55	 
caau_snacks_913	 0	 1	 02	 1	 9	 4.303468e+01	 Jollyranchergreen.bmp	 Cupcakes.bmp	 45	 49	 1	 u	 2	 1	 1058.53	 0.88	 0.56	 
caau_snacks_913	 0	 1	 02	 1	 10	 4.603337e+01	 ChipsAhoy_small.bmp	 FamousAmos_small.bmp	 10	 9	 1	 i	 1	 0	 1439.24	 2.63	 2.74	 
caau_snacks_913	 0	 1	 02	 1	 11	 5.103165e+01	 Almondjoy.bmp	 Fritos.bmp	 41	 42	 0	 u	 5	 0	 969.88	 1.02	 1.02	 
caau_snacks_913	 0	 1	 02	 1	 12	 5.704621e+01	 TeddyGrahamschocolate.bmp	 Oreos.bmp	 39	 40	 1	 u	 5	 1	 1006.54	 1.18	 1.13	 
caau_snacks_913	 0	 1	 02	 1	 13	 6.004493e+01	 Lollipopred.bmp	 HoHo.bmp	 53	 51	 1	 u	 2	 1	 902.18	 0.27	 0.53	 
caau_snacks_913	 0	 1	 02	 1	 14	 6.904181e+01	 ChipsAhoy_small.bmp	 Toberlorone.bmp	 10	 11	 1	 i	 1	 0	 1003.73	 2.63	 2.57	 
caau_snacks_913	 0	 1	 02	 1	 15	 7.503941e+01	 Jollyranchergreen.bmp	 HoHo.bmp	 45	 51	 1	 u	 2	 1	 1021.66	 0.88	 0.53	 
caau_snacks_913	 0	 1	 02	 1	 16	 8.303659e+01	 Toberlorone.bmp	 MrGoodbar.bmp	 11	 7	 0	 u	 1	 0	 1454.96	 2.57	 2.79	 
caau_snacks_913	 0	 1	 02	 1	 17	 8.603543e+01	 Toberlorone.bmp	 FrootLoops.bmp	 11	 12	 0	 u	 1	 0	 750.11	 2.57	 2.55	 
caau_snacks_913	 0	 1	 02	 1	 18	 9.103356e+01	 Riprolls.bmp	 Goldfish.bmp	 47	 48	 1	 x	 2	 999	 999000.00	 0.83	 0.56	 
caau_snacks_913	 0	 1	 02	 1	 19	 9.403251e+01	 Dots_one.bmp	 PopTartsStrawberry.bmp	 43	 44	 0	 i	 2	 1	 917.59	 1.01	 1.01	 
caau_snacks_913	 0	 1	 02	 1	 20	 9.703154e+01	 SourSkittles.bmp	 ChipsAhoy_small.bmp	 16	 10	 0	 i	 1	 1	 946.05	 2.50	 2.63	 
caau_snacks_913	 0	 1	 02	 1	 21	 1.030459e+02	 Ghiradelli_milk.bmp	 Skittles.bmp	 19	 20	 1	 u	 4	 1	 720.90	 2.24	 2.23	 
caau_snacks_913	 0	 1	 02	 1	 22	 1.100433e+02	 RitzBitz2.bmp	 Lollipopred.bmp	 46	 53	 0	 i	 2	 1	 953.02	 0.84	 0.27	 
caau_snacks_913	 0	 1	 02	 1	 23	 1.150415e+02	 Skittles.bmp	 Ghiradelli_milk.bmp	 20	 19	 0	 i	 4	 1	 820.56	 2.23	 2.24	 
caau_snacks_913	 0	 1	 02	 1	 24	 1.200398e+02	 Dots_one.bmp	 Riprolls.bmp	 43	 47	 0	 i	 2	 1	 707.92	 1.01	 0.83	 
caau_snacks_913	 0	 1	 02	 1	 25	 1.230389e+02	 Funyuns_small.bmp	 Keeblerfudgestripes.bmp	 22	 21	 1	 i	 4	 0	 885.97	 2.02	 2.02	 
caau_snacks_913	 0	 1	 02	 1	 26	 1.280369e+02	 Slimjim.bmp	 Chocolate_mm.bmp	 15	 17	 1	 i	 1	 0	 965.98	 2.50	 2.49	 
caau_snacks_913	 0	 1	 02	 1	 27	 1.340346e+02	 Snickers.bmp	 FamousAmos_small.bmp	 13	 9	 1	 u	 1	 1	 955.17	 2.53	 2.74	 
caau_snacks_913	 0	 1	 02	 1	 28	 1.380332e+02	 RitzBitz2.bmp	 Hersheymilk_several.bmp	 46	 50	 0	 i	 2	 1	 815.72	 0.84	 0.54	 
caau_snacks_913	 0	 1	 02	 1	 29	 1.480461e+02	 PringlesRed.bmp	 Riprolls.bmp	 54	 47	 0	 i	 2	 1	 873.26	 0.18	 0.83	 
caau_snacks_913	 0	 1	 02	 1	 30	 1.510451e+02	 Slimjim.bmp	 Cheezits.bmp	 15	 14	 1	 i	 1	 0	 729.14	 2.50	 2.51	 
caau_snacks_913	 0	 1	 02	 1	 31	 1.540438e+02	 MrGoodbar.bmp	 SourSkittles.bmp	 7	 16	 1	 u	 1	 1	 797.37	 2.79	 2.50	 
caau_snacks_913	 0	 1	 02	 1	 32	 1.660396e+02	 SourSkittles.bmp	 Snickers.bmp	 16	 13	 0	 i	 1	 1	 841.55	 2.50	 2.53	 
caau_snacks_913	 0	 1	 02	 1	 33	 1.700382e+02	 Cupcakes.bmp	 Hersheymilk_several.bmp	 49	 50	 0	 i	 2	 1	 715.53	 0.56	 0.54	 
caau_snacks_913	 0	 1	 02	 1	 34	 1.740365e+02	 Cheezits.bmp	 Snickers.bmp	 14	 13	 0	 i	 1	 1	 788.21	 2.51	 2.53	 
caau_snacks_913	 0	 1	 02	 1	 35	 1.770354e+02	 PeanutMMs.bmp	 Snickers.bmp	 8	 13	 0	 u	 1	 0	 1151.53	 2.76	 2.53	 
caau_snacks_913	 0	 1	 02	 1	 36	 1.850323e+02	 Goldfish.bmp	 PopTartsStrawberry.bmp	 48	 44	 0	 i	 2	 1	 922.86	 0.56	 1.01	 
caau_snacks_913	 0	 1	 02	 1	 37	 1.900308e+02	 Slimjim.bmp	 SourSkittles.bmp	 15	 16	 1	 i	 1	 0	 673.63	 2.50	 2.50	 
caau_snacks_913	 0	 1	 02	 1	 38	 1.970449e+02	 Dots_one.bmp	 Jollyranchergreen.bmp	 43	 45	 0	 i	 2	 1	 875.59	 1.01	 0.88	 
caau_snacks_913	 0	 1	 02	 1	 39	 2.000438e+02	 Cupcakes.bmp	 Riprolls.bmp	 49	 47	 0	 i	 2	 1	 787.75	 0.56	 0.83	 
caau_snacks_913	 0	 1	 02	 1	 40	 2.070412e+02	 Ghiradelli_milk_Almonds.bmp	 Chocolate_mm.bmp	 18	 17	 1	 u	 1	 1	 1012.63	 2.24	 2.49	 
caau_snacks_913	 0	 1	 02	 1	 41	 2.130389e+02	 ChipsAhoy_small.bmp	 Chocolate_mm.bmp	 10	 17	 1	 i	 1	 0	 1009.64	 2.63	 2.49	 
caau_snacks_913	 0	 1	 02	 1	 42	 2.170376e+02	 Riprolls.bmp	 HoHo.bmp	 47	 51	 1	 u	 2	 1	 1034.55	 0.83	 0.53	 
caau_snacks_913	 0	 1	 02	 1	 43	 2.210360e+02	 PeanutMMs.bmp	 MrGoodbar.bmp	 8	 7	 0	 i	 1	 1	 1079.85	 2.76	 2.79	 
caau_snacks_913	 0	 1	 02	 1	 44	 2.240350e+02	 FamousAmos_small.bmp	 MrGoodbar.bmp	 9	 7	 0	 i	 1	 1	 1000.20	 2.74	 2.79	 
caau_snacks_913	 0	 1	 02	 1	 45	 2.270339e+02	 Slimjim.bmp	 FamousAmos_small.bmp	 15	 9	 1	 i	 1	 0	 686.08	 2.50	 2.74	 
caau_snacks_913	 0	 1	 02	 1	 46	 2.330484e+02	 Toberlorone.bmp	 Ghiradelli_milk_Almonds.bmp	 11	 18	 0	 i	 1	 1	 1383.11	 2.57	 2.24	 
caau_snacks_913	 0	 1	 02	 1	 47	 2.360306e+02	 Ghiradelli_milk_Almonds.bmp	 SourSkittles.bmp	 18	 16	 1	 u	 1	 1	 950.47	 2.24	 2.50	 
caau_snacks_913	 0	 1	 02	 1	 48	 2.410455e+02	 Jollyranchergreen.bmp	 RitzBitz2.bmp	 45	 46	 1	 u	 2	 1	 843.76	 0.88	 0.84	 
caau_snacks_913	 0	 1	 02	 1	 49	 2.440445e+02	 HoHo.bmp	 Hersheymilk_several.bmp	 51	 50	 0	 i	 2	 1	 909.62	 0.53	 0.54	 
caau_snacks_913	 0	 1	 02	 1	 50	 2.500421e+02	 Hersheymilk_several.bmp	 Dots_one.bmp	 50	 43	 1	 u	 2	 1	 850.62	 0.54	 1.01	 
caau_snacks_913	 0	 1	 02	 1	 51	 2.530411e+02	 FigNewton_small.bmp	 RitzBitz2.bmp	 52	 46	 1	 i	 2	 0	 781.07	 0.51	 0.84	 
caau_snacks_913	 0	 1	 02	 1	 52	 2.580392e+02	 FamousAmos_small.bmp	 Ghiradelli_milk_Almonds.bmp	 9	 18	 0	 i	 1	 1	 1435.00	 2.74	 2.24	 
caau_snacks_913	 0	 1	 02	 1	 53	 2.680356e+02	 Dots_one.bmp	 Lollipopred.bmp	 43	 53	 0	 i	 2	 1	 1047.67	 1.01	 0.27	 
caau_snacks_913	 0	 1	 02	 1	 54	 2.730336e+02	 PringlesRed.bmp	 PopTartsStrawberry.bmp	 54	 44	 0	 i	 2	 1	 1072.94	 0.18	 1.01	 
caau_snacks_913	 0	 1	 02	 1	 55	 2.770323e+02	 RitzBitz2.bmp	 PopTartsStrawberry.bmp	 46	 44	 0	 u	 2	 0	 1399.71	 0.84	 1.01	 
caau_snacks_913	 0	 1	 02	 1	 56	 2.800312e+02	 PringlesRed.bmp	 Hersheymilk_several.bmp	 54	 50	 0	 i	 2	 1	 888.48	 0.18	 0.54	 
caau_snacks_913	 0	 1	 02	 1	 57	 2.830466e+02	 FrootLoops.bmp	 FamousAmos_small.bmp	 12	 9	 1	 i	 1	 0	 889.48	 2.55	 2.74	 
caau_snacks_913	 0	 1	 02	 1	 58	 2.890445e+02	 ChipsAhoy_small.bmp	 PeanutMMs.bmp	 10	 8	 1	 i	 1	 0	 1015.58	 2.63	 2.76	 
caau_snacks_913	 0	 1	 02	 1	 59	 2.920297e+02	 FigNewton_small.bmp	 PringlesRed.bmp	 52	 54	 1	 i	 2	 0	 1411.79	 0.51	 0.18	 
caau_snacks_913	 0	 1	 02	 1	 60	 2.980414e+02	 Ghiradelli_milk_Almonds.bmp	 PeanutMMs.bmp	 18	 8	 1	 i	 1	 0	 1222.27	 2.24	 2.76	 
caau_snacks_913	 0	 1	 02	 1	 61	 3.110365e+02	 HoHo.bmp	 PopTartsStrawberry.bmp	 51	 44	 0	 i	 2	 1	 852.44	 0.53	 1.01	 
caau_snacks_913	 0	 1	 02	 1	 62	 3.150351e+02	 Goldfish.bmp	 FigNewton_small.bmp	 48	 52	 0	 u	 2	 0	 987.87	 0.56	 0.51	 
caau_snacks_913	 0	 1	 02	 1	 63	 3.190336e+02	 MrGoodbar.bmp	 Cheezits.bmp	 7	 14	 1	 u	 1	 1	 1037.19	 2.79	 2.51	 
caau_snacks_913	 0	 1	 02	 1	 64	 3.230320e+02	 Almondjoy.bmp	 Fritos.bmp	 41	 42	 0	 u	 5	 0	 1187.71	 1.02	 1.02	 
caau_snacks_913	 0	 1	 02	 1	 65	 3.270307e+02	 Funyuns_small.bmp	 Keeblerfudgestripes.bmp	 22	 21	 1	 i	 4	 0	 820.04	 2.02	 2.02	 
caau_snacks_913	 0	 1	 02	 1	 66	 3.310459e+02	 Toberlorone.bmp	 Snickers.bmp	 11	 13	 0	 i	 1	 1	 1175.01	 2.57	 2.53	 
caau_snacks_913	 0	 1	 02	 1	 67	 3.390430e+02	 Jollyranchergreen.bmp	 Goldfish.bmp	 45	 48	 1	 i	 2	 0	 1387.46	 0.88	 0.56	 
caau_snacks_913	 0	 1	 02	 1	 68	 3.420419e+02	 SourSkittles.bmp	 FrootLoops.bmp	 16	 12	 0	 i	 1	 1	 1381.98	 2.50	 2.55	 
caau_snacks_913	 0	 1	 02	 1	 69	 3.470400e+02	 FrootLoops.bmp	 Chocolate_mm.bmp	 12	 17	 1	 i	 1	 0	 1236.44	 2.55	 2.49	 
caau_snacks_913	 0	 1	 02	 1	 70	 3.510385e+02	 Oreos.bmp	 TeddyGrahamschocolate.bmp	 40	 39	 0	 i	 5	 1	 994.09	 1.13	 1.18	 
caau_snacks_913	 0	 1	 02	 1	 71	 3.540375e+02	 PopTartsStrawberry.bmp	 Cupcakes.bmp	 44	 49	 1	 u	 2	 1	 961.35	 1.01	 0.56	 
caau_snacks_913	 0	 1	 02	 1	 72	 3.590357e+02	 Lollipopred.bmp	 PringlesRed.bmp	 53	 54	 1	 u	 2	 1	 1009.65	 0.27	 0.18	 
caau_snacks_913	 0	 1	 02	 1	 73	 3.640338e+02	 RitzBitz2.bmp	 Riprolls.bmp	 46	 47	 0	 i	 2	 1	 908.93	 0.84	 0.83	 
caau_snacks_913	 0	 1	 02	 1	 74	 3.690319e+02	 FigNewton_small.bmp	 Dots_one.bmp	 52	 43	 1	 i	 2	 0	 1437.24	 0.51	 1.01	 
caau_snacks_913	 0	 1	 02	 1	 75	 3.730304e+02	 Cupcakes.bmp	 FigNewton_small.bmp	 49	 52	 0	 x	 2	 999	 999000.00	 0.56	 0.51	 
caau_snacks_913	 0	 1	 02	 1	 76	 3.770459e+02	 Goldfish.bmp	 Hersheymilk_several.bmp	 48	 50	 0	 i	 2	 1	 1097.99	 0.56	 0.54	 
caau_snacks_913	 0	 1	 02	 1	 77	 3.820439e+02	 FigNewton_small.bmp	 HoHo.bmp	 52	 51	 1	 u	 2	 1	 970.52	 0.51	 0.53	 
caau_snacks_913	 0	 1	 02	 1	 78	 3.860426e+02	 Cheezits.bmp	 FrootLoops.bmp	 14	 12	 0	 u	 1	 0	 910.98	 2.51	 2.55	 
caau_snacks_913	 0	 1	 02	 1	 79	 3.930399e+02	 Chocolate_mm.bmp	 Snickers.bmp	 17	 13	 0	 i	 1	 1	 944.08	 2.49	 2.53	 
caau_snacks_913	 0	 1	 02	 1	 80	 3.980381e+02	 Jollyranchergreen.bmp	 PringlesRed.bmp	 45	 54	 1	 u	 2	 1	 771.92	 0.88	 0.18	 
