subjectID	scanner	order	block	run	trial	onsettime	ImageLeft	ImageRight	bidIndexLeft	bidIndexRight	IsleftGo	Response	PairType	Outcome	RT	bidLeft	bidRight	
caau_snacks_910	 0	 2	 02	 1	 1	 2.036119e+00	 Streusel.bmp	 TeddyGrahamschocolate.bmp	 11	 12	 1	 i	 1	 0	 947.83	 1.99	 1.57	 
caau_snacks_910	 0	 2	 02	 1	 2	 1.303269e+01	 Twinkie.bmp	 Laysclassic.bmp	 50	 46	 0	 i	 2	 1	 796.69	 1.00	 1.01	 
caau_snacks_910	 0	 2	 02	 1	 3	 1.603189e+01	 Oreos.bmp	 Cupcakes.bmp	 17	 7	 1	 i	 1	 0	 1421.37	 1.51	 2.01	 
caau_snacks_910	 0	 2	 02	 1	 4	 2.103047e+01	 PopTartsCinnamon.bmp	 PopTartsStrawberry.bmp	 10	 9	 0	 i	 1	 1	 1074.19	 1.99	 2.00	 
caau_snacks_910	 0	 2	 02	 1	 5	 2.802820e+01	 SnoBall.bmp	 Keeblerfudgestripes.bmp	 16	 18	 1	 i	 1	 0	 651.99	 1.52	 1.51	 
caau_snacks_910	 0	 2	 02	 1	 6	 3.502626e+01	 AnimalCrackers.bmp	 Streusel.bmp	 13	 11	 0	 u	 1	 0	 821.94	 1.57	 1.99	 
caau_snacks_910	 0	 2	 02	 1	 7	 4.802244e+01	 Sourpatch.bmp	 Almondjoy.bmp	 43	 53	 1	 u	 2	 1	 872.81	 1.01	 0.99	 
caau_snacks_910	 0	 2	 02	 1	 8	 5.402048e+01	 Keeblerfudgestripes.bmp	 PopTartsStrawberry.bmp	 18	 9	 0	 u	 1	 0	 963.41	 1.51	 2.00	 
caau_snacks_910	 0	 2	 02	 1	 9	 5.903574e+01	 Laysclassic.bmp	 Fritos.bmp	 46	 47	 1	 i	 2	 0	 769.09	 1.01	 1.01	 
caau_snacks_910	 0	 2	 02	 1	 10	 6.503392e+01	 Twinkie.bmp	 Jollyrancherred.bmp	 50	 54	 0	 u	 2	 0	 1109.74	 1.00	 0.52	 
caau_snacks_910	 0	 2	 02	 1	 11	 6.803297e+01	 Cupcakes.bmp	 Ghiradelli_milk.bmp	 7	 8	 0	 u	 1	 0	 1271.96	 2.01	 2.00	 
caau_snacks_910	 0	 2	 02	 1	 12	 7.103204e+01	 Sourpatch.bmp	 Butterfinger.bmp	 43	 45	 1	 u	 2	 1	 1059.23	 1.01	 1.01	 
caau_snacks_910	 0	 2	 02	 1	 13	 8.402812e+01	 Butterfinger.bmp	 Milkduds.bmp	 45	 49	 0	 i	 2	 1	 1119.70	 1.01	 1.00	 
caau_snacks_910	 0	 2	 02	 1	 14	 8.802687e+01	 Jollyrancherred.bmp	 Butterfinger.bmp	 54	 45	 1	 i	 2	 0	 1198.32	 0.52	 1.01	 
caau_snacks_910	 0	 2	 02	 1	 15	 9.102605e+01	 HoHo.bmp	 SnoBall.bmp	 15	 16	 0	 u	 1	 0	 1312.26	 1.53	 1.52	 
caau_snacks_910	 0	 2	 02	 1	 16	 9.402502e+01	 Cupcakes.bmp	 Streusel.bmp	 7	 11	 0	 u	 1	 0	 1243.82	 2.01	 1.99	 
caau_snacks_910	 0	 2	 02	 1	 17	 9.802390e+01	 Keeblerfudgestripes.bmp	 Streusel.bmp	 18	 11	 0	 u	 1	 0	 1143.35	 1.51	 1.99	 
caau_snacks_910	 0	 2	 02	 1	 18	 1.050219e+02	 Laysclassic.bmp	 Butterfinger.bmp	 46	 45	 1	 u	 2	 1	 1007.88	 1.01	 1.01	 
caau_snacks_910	 0	 2	 02	 1	 19	 1.130363e+02	 MilkyWay.bmp	 Fritos.bmp	 48	 47	 1	 u	 2	 1	 1014.18	 1.00	 1.01	 
caau_snacks_910	 0	 2	 02	 1	 20	 1.160352e+02	 Chocolate_mm.bmp	 Laysclassic.bmp	 52	 46	 0	 i	 2	 1	 1010.75	 1.00	 1.01	 
caau_snacks_910	 0	 2	 02	 1	 21	 1.210337e+02	 Laysclassic.bmp	 Almondjoy.bmp	 46	 53	 1	 u	 2	 1	 808.95	 1.01	 0.99	 
caau_snacks_910	 0	 2	 02	 1	 22	 1.250325e+02	 Oreos.bmp	 Keeblerfudgestripes.bmp	 17	 18	 1	 i	 1	 0	 842.15	 1.51	 1.51	 
caau_snacks_910	 0	 2	 02	 1	 23	 1.290313e+02	 Sourpatch.bmp	 Twinkie.bmp	 43	 50	 1	 u	 2	 1	 804.76	 1.01	 1.00	 
caau_snacks_910	 0	 2	 02	 1	 24	 1.320303e+02	 Twinkie.bmp	 Milkduds.bmp	 50	 49	 0	 i	 2	 1	 1016.39	 1.00	 1.00	 
caau_snacks_910	 0	 2	 02	 1	 25	 1.350295e+02	 ChipsAhoy_small.bmp	 Doritosranch.bmp	 39	 40	 0	 i	 5	 1	 1207.32	 1.02	 1.02	 
caau_snacks_910	 0	 2	 02	 1	 26	 1.420273e+02	 SnoBall.bmp	 Cupcakes.bmp	 16	 7	 1	 i	 1	 0	 869.61	 1.52	 2.01	 
caau_snacks_910	 0	 2	 02	 1	 27	 1.450268e+02	 Milkduds.bmp	 MrGoodbar.bmp	 49	 44	 1	 u	 2	 1	 978.21	 1.00	 1.01	 
caau_snacks_910	 0	 2	 02	 1	 28	 1.490254e+02	 Streusel.bmp	 PopTartsCinnamon.bmp	 11	 10	 1	 i	 1	 0	 1198.11	 1.99	 1.99	 
caau_snacks_910	 0	 2	 02	 1	 29	 1.530240e+02	 AnimalCrackers.bmp	 Oreos.bmp	 13	 17	 0	 u	 1	 0	 1048.21	 1.57	 1.51	 
caau_snacks_910	 0	 2	 02	 1	 30	 1.570229e+02	 Slimjim.bmp	 TeddyGrahamschocolate.bmp	 14	 12	 1	 x	 1	 999	 999000.00	 1.55	 1.57	 
caau_snacks_910	 0	 2	 02	 1	 31	 1.630209e+02	 PopTartsStrawberry.bmp	 HoHo.bmp	 9	 15	 1	 i	 1	 0	 1343.89	 2.00	 1.53	 
caau_snacks_910	 0	 2	 02	 1	 32	 1.660201e+02	 Slimjim.bmp	 AnimalCrackers.bmp	 14	 13	 1	 i	 1	 0	 954.04	 1.55	 1.57	 
caau_snacks_910	 0	 2	 02	 1	 33	 1.690360e+02	 PopTartsStrawberry.bmp	 Cupcakes.bmp	 9	 7	 1	 x	 1	 999	 999000.00	 2.00	 2.01	 
caau_snacks_910	 0	 2	 02	 1	 34	 1.750341e+02	 AnimalCrackers.bmp	 Ghiradelli_milk.bmp	 13	 8	 0	 u	 1	 0	 900.25	 1.57	 2.00	 
caau_snacks_910	 0	 2	 02	 1	 35	 1.780334e+02	 AnimalCrackers.bmp	 PopTartsStrawberry.bmp	 13	 9	 0	 u	 1	 0	 610.10	 1.57	 2.00	 
caau_snacks_910	 0	 2	 02	 1	 36	 1.820319e+02	 Chocolate_mm.bmp	 Jollyrancherred.bmp	 52	 54	 0	 u	 2	 0	 834.13	 1.00	 0.52	 
caau_snacks_910	 0	 2	 02	 1	 37	 1.880303e+02	 Jollyrancherred.bmp	 Fritos.bmp	 54	 47	 1	 i	 2	 0	 720.03	 0.52	 1.01	 
caau_snacks_910	 0	 2	 02	 1	 38	 1.920291e+02	 AnimalCrackers.bmp	 SnoBall.bmp	 13	 16	 0	 u	 1	 0	 720.57	 1.57	 1.52	 
caau_snacks_910	 0	 2	 02	 1	 39	 1.950282e+02	 Slimjim.bmp	 HoHo.bmp	 14	 15	 1	 i	 1	 0	 1265.14	 1.55	 1.53	 
caau_snacks_910	 0	 2	 02	 1	 40	 1.980273e+02	 Milkduds.bmp	 Fritos.bmp	 49	 47	 1	 i	 2	 0	 1008.16	 1.00	 1.01	 
caau_snacks_910	 0	 2	 02	 1	 41	 2.020260e+02	 Slimjim.bmp	 Keeblerfudgestripes.bmp	 14	 18	 1	 i	 1	 0	 857.94	 1.55	 1.51	 
caau_snacks_910	 0	 2	 02	 1	 42	 2.060251e+02	 Chocolate_mm.bmp	 Sourpatch.bmp	 52	 43	 0	 x	 2	 999	 999000.00	 1.00	 1.01	 
caau_snacks_910	 0	 2	 02	 1	 43	 2.130227e+02	 Fritos.bmp	 Sourpatch.bmp	 47	 43	 0	 i	 2	 1	 451.23	 1.01	 1.01	 
caau_snacks_910	 0	 2	 02	 1	 44	 2.160219e+02	 TeddyGrahamschocolate.bmp	 SnoBall.bmp	 12	 16	 0	 u	 1	 0	 785.48	 1.57	 1.52	 
caau_snacks_910	 0	 2	 02	 1	 45	 2.220200e+02	 Almondjoy.bmp	 Jollyrancherred.bmp	 53	 54	 0	 i	 2	 1	 878.02	 0.99	 0.52	 
caau_snacks_910	 0	 2	 02	 1	 46	 2.250357e+02	 Milkduds.bmp	 Chocolate_mm.bmp	 49	 52	 1	 u	 2	 1	 1007.30	 1.00	 1.00	 
caau_snacks_910	 0	 2	 02	 1	 47	 2.280196e+02	 Doritosranch.bmp	 ChipsAhoy_small.bmp	 40	 39	 1	 u	 5	 1	 1073.38	 1.02	 1.02	 
caau_snacks_910	 0	 2	 02	 1	 48	 2.310340e+02	 Oreos.bmp	 HoHo.bmp	 17	 15	 1	 i	 1	 0	 1327.23	 1.51	 1.53	 
caau_snacks_910	 0	 2	 02	 1	 49	 2.340331e+02	 SourSkittles.bmp	 Laffytaffyred_one.bmp	 41	 42	 1	 u	 5	 1	 1193.47	 1.02	 1.02	 
caau_snacks_910	 0	 2	 02	 1	 50	 2.410309e+02	 Slimjim.bmp	 Cupcakes.bmp	 14	 7	 1	 i	 1	 0	 1162.13	 1.55	 2.01	 
caau_snacks_910	 0	 2	 02	 1	 51	 2.510280e+02	 MilkyWay.bmp	 Chocolate_mm.bmp	 48	 52	 1	 u	 2	 1	 711.12	 1.00	 1.00	 
caau_snacks_910	 0	 2	 02	 1	 52	 2.570261e+02	 Almondjoy.bmp	 100grand_small.bmp	 53	 51	 0	 x	 2	 999	 999000.00	 0.99	 1.00	 
caau_snacks_910	 0	 2	 02	 1	 53	 2.600253e+02	 Twinkie.bmp	 MilkyWay.bmp	 50	 48	 0	 i	 2	 1	 836.35	 1.00	 1.00	 
caau_snacks_910	 0	 2	 02	 1	 54	 2.670231e+02	 FigNewton_small.bmp	 FamousAmos_small.bmp	 20	 19	 1	 i	 4	 0	 1214.53	 1.50	 1.51	 
caau_snacks_910	 0	 2	 02	 1	 55	 2.700224e+02	 Almondjoy.bmp	 Milkduds.bmp	 53	 49	 0	 i	 2	 1	 1149.73	 0.99	 1.00	 
caau_snacks_910	 0	 2	 02	 1	 56	 2.740212e+02	 PopTartsCinnamon.bmp	 Ghiradelli_milk.bmp	 10	 8	 0	 u	 1	 0	 729.03	 1.99	 2.00	 
caau_snacks_910	 0	 2	 02	 1	 57	 2.770202e+02	 PopTartsCinnamon.bmp	 Slimjim.bmp	 10	 14	 0	 u	 1	 0	 1348.90	 1.99	 1.55	 
caau_snacks_910	 0	 2	 02	 1	 58	 2.810357e+02	 Sourpatch.bmp	 MrGoodbar.bmp	 43	 44	 1	 x	 2	 999	 999000.00	 1.01	 1.01	 
caau_snacks_910	 0	 2	 02	 1	 59	 2.850344e+02	 PopTartsStrawberry.bmp	 TeddyGrahamschocolate.bmp	 9	 12	 1	 i	 1	 0	 855.40	 2.00	 1.57	 
caau_snacks_910	 0	 2	 02	 1	 60	 2.920325e+02	 MrGoodbar.bmp	 100grand_small.bmp	 44	 51	 0	 u	 2	 0	 783.59	 1.01	 1.00	 
caau_snacks_910	 0	 2	 02	 1	 61	 2.960310e+02	 MrGoodbar.bmp	 MilkyWay.bmp	 44	 48	 0	 i	 2	 1	 864.11	 1.01	 1.00	 
caau_snacks_910	 0	 2	 02	 1	 62	 3.010297e+02	 MilkyWay.bmp	 Butterfinger.bmp	 48	 45	 1	 u	 2	 1	 640.12	 1.00	 1.01	 
caau_snacks_910	 0	 2	 02	 1	 63	 3.050285e+02	 Oreos.bmp	 TeddyGrahamschocolate.bmp	 17	 12	 1	 i	 1	 0	 473.96	 1.51	 1.57	 
caau_snacks_910	 0	 2	 02	 1	 64	 3.080276e+02	 Ghiradelli_milk.bmp	 Keeblerfudgestripes.bmp	 8	 18	 1	 u	 1	 1	 572.88	 2.00	 1.51	 
caau_snacks_910	 0	 2	 02	 1	 65	 3.150254e+02	 Funyuns_small.bmp	 KitKat_small.bmp	 22	 21	 0	 i	 4	 1	 744.33	 1.48	 1.50	 
caau_snacks_910	 0	 2	 02	 1	 66	 3.220234e+02	 100grand_small.bmp	 Butterfinger.bmp	 51	 45	 1	 i	 2	 0	 763.03	 1.00	 1.01	 
caau_snacks_910	 0	 2	 02	 1	 67	 3.260221e+02	 FigNewton_small.bmp	 FamousAmos_small.bmp	 20	 19	 1	 i	 4	 0	 1225.13	 1.50	 1.51	 
caau_snacks_910	 0	 2	 02	 1	 68	 3.300210e+02	 Funyuns_small.bmp	 KitKat_small.bmp	 22	 21	 0	 i	 4	 1	 797.70	 1.48	 1.50	 
caau_snacks_910	 0	 2	 02	 1	 69	 3.360360e+02	 Laffytaffyred_one.bmp	 SourSkittles.bmp	 42	 41	 0	 i	 5	 1	 654.70	 1.02	 1.02	 
caau_snacks_910	 0	 2	 02	 1	 70	 3.400345e+02	 Almondjoy.bmp	 MilkyWay.bmp	 53	 48	 0	 i	 2	 1	 732.89	 0.99	 1.00	 
caau_snacks_910	 0	 2	 02	 1	 71	 3.520311e+02	 Ghiradelli_milk.bmp	 HoHo.bmp	 8	 15	 1	 i	 1	 0	 1045.88	 2.00	 1.53	 
caau_snacks_910	 0	 2	 02	 1	 72	 3.610283e+02	 Streusel.bmp	 HoHo.bmp	 11	 15	 1	 i	 1	 0	 1289.54	 1.99	 1.53	 
caau_snacks_910	 0	 2	 02	 1	 73	 3.640275e+02	 PopTartsCinnamon.bmp	 SnoBall.bmp	 10	 16	 0	 u	 1	 0	 1258.36	 1.99	 1.52	 
caau_snacks_910	 0	 2	 02	 1	 74	 3.690260e+02	 MrGoodbar.bmp	 Jollyrancherred.bmp	 44	 54	 0	 u	 2	 0	 928.93	 1.01	 0.52	 
caau_snacks_910	 0	 2	 02	 1	 75	 3.720251e+02	 TeddyGrahamschocolate.bmp	 Ghiradelli_milk.bmp	 12	 8	 0	 u	 1	 0	 716.41	 1.57	 2.00	 
caau_snacks_910	 0	 2	 02	 1	 76	 3.790229e+02	 Chocolate_mm.bmp	 100grand_small.bmp	 52	 51	 0	 u	 2	 0	 1076.21	 1.00	 1.00	 
caau_snacks_910	 0	 2	 02	 1	 77	 3.830218e+02	 PopTartsCinnamon.bmp	 Oreos.bmp	 10	 17	 0	 u	 1	 0	 1046.25	 1.99	 1.51	 
caau_snacks_910	 0	 2	 02	 1	 78	 3.870206e+02	 MrGoodbar.bmp	 Laysclassic.bmp	 44	 46	 0	 u	 2	 0	 736.41	 1.01	 1.01	 
caau_snacks_910	 0	 2	 02	 1	 79	 3.900364e+02	 Twinkie.bmp	 100grand_small.bmp	 50	 51	 0	 i	 2	 1	 1068.14	 1.00	 1.00	 
caau_snacks_910	 0	 2	 02	 1	 80	 3.980339e+02	 100grand_small.bmp	 Fritos.bmp	 51	 47	 1	 i	 2	 0	 738.52	 1.00	 1.01	 
