subjectID	scanner	order	block	run	trial	onsettime	ImageLeft	ImageRight	bidIndexLeft	bidIndexRight	IsleftGo	Response	PairType	Outcome	RT	bidLeft	bidRight	
caau_snacks_905	 0	 1	 02	 1	 1	 2.032681e+00	 Keeblerfudgestripes.bmp	 Jollyrancherred.bmp	 45	 54	 1	 i	 2	 0	 969.45	 0.57	 0.46	 
caau_snacks_905	 0	 1	 02	 1	 2	 1.003065e+01	 HoHo.bmp	 Hersheymilk_several.bmp	 52	 46	 1	 i	 2	 0	 783.53	 0.47	 0.56	 
caau_snacks_905	 0	 1	 02	 1	 3	 1.302961e+01	 KitKat_small.bmp	 MrGoodbar.bmp	 19	 20	 1	 u	 4	 1	 744.78	 1.48	 1.46	 
caau_snacks_905	 0	 1	 02	 1	 4	 2.002798e+01	 SnoBall.bmp	 Hersheymilk_several.bmp	 44	 46	 1	 i	 2	 0	 613.59	 0.57	 0.56	 
caau_snacks_905	 0	 1	 02	 1	 5	 2.704260e+01	 3Musketeers.bmp	 MilkyWay.bmp	 14	 10	 0	 u	 1	 0	 776.96	 1.52	 1.67	 
caau_snacks_905	 0	 1	 02	 1	 6	 3.304109e+01	 Hersheykisses.bmp	 Oreos.bmp	 50	 48	 1	 u	 2	 1	 786.22	 0.48	 0.49	 
caau_snacks_905	 0	 1	 02	 1	 7	 3.604031e+01	 PopTartsStrawberry.bmp	 Chocolate_mm.bmp	 7	 11	 1	 u	 1	 1	 932.89	 1.96	 1.56	 
caau_snacks_905	 0	 1	 02	 1	 8	 3.903949e+01	 Toberlorone.bmp	 Skittles.bmp	 9	 15	 0	 u	 1	 0	 996.14	 1.78	 1.50	 
caau_snacks_905	 0	 1	 02	 1	 9	 4.603755e+01	 PopTartsStrawberry.bmp	 Granolabar.bmp	 7	 17	 1	 i	 1	 0	 998.20	 1.96	 1.48	 
caau_snacks_905	 0	 1	 02	 1	 10	 5.103618e+01	 Goldfish.bmp	 Dots_one.bmp	 40	 39	 0	 x	 5	 999	 999000.00	 0.79	 0.97	 
caau_snacks_905	 0	 1	 02	 1	 11	 5.603494e+01	 PayDay.bmp	 AnimalCrackers.bmp	 49	 47	 0	 i	 2	 1	 755.55	 0.49	 0.51	 
caau_snacks_905	 0	 1	 02	 1	 12	 6.103337e+01	 Reeses.bmp	 AnimalCrackers.bmp	 51	 47	 0	 i	 2	 1	 644.55	 0.48	 0.51	 
caau_snacks_905	 0	 1	 02	 1	 13	 7.203047e+01	 Reeses.bmp	 Hersheykisses.bmp	 51	 50	 0	 i	 2	 1	 681.95	 0.48	 0.48	 
caau_snacks_905	 0	 1	 02	 1	 14	 7.702932e+01	 Jollyranchergreen.bmp	 Keeblerfudgestripes.bmp	 43	 45	 0	 i	 2	 1	 579.79	 0.60	 0.57	 
caau_snacks_905	 0	 1	 02	 1	 15	 8.002843e+01	 Hersheymilk_several.bmp	 Hersheykisses.bmp	 46	 50	 0	 i	 2	 1	 590.98	 0.56	 0.48	 
caau_snacks_905	 0	 1	 02	 1	 16	 8.702579e+01	 MilkyWay.bmp	 PopTartsCinnamon.bmp	 10	 8	 1	 i	 1	 0	 616.54	 1.67	 1.95	 
caau_snacks_905	 0	 1	 02	 1	 17	 9.304159e+01	 Goldfish.bmp	 Dots_one.bmp	 40	 39	 0	 i	 5	 1	 655.76	 0.79	 0.97	 
caau_snacks_905	 0	 1	 02	 1	 18	 1.000395e+02	 FamousAmos_small.bmp	 PopTartsCinnamon.bmp	 18	 8	 1	 i	 1	 0	 538.11	 1.48	 1.95	 
caau_snacks_905	 0	 1	 02	 1	 19	 1.070378e+02	 Chocolate_mm.bmp	 FamousAmos_small.bmp	 11	 18	 0	 i	 1	 1	 555.15	 1.56	 1.48	 
caau_snacks_905	 0	 1	 02	 1	 20	 1.100369e+02	 Toberlorone.bmp	 PeanutMMs.bmp	 9	 12	 0	 u	 1	 0	 630.81	 1.78	 1.55	 
caau_snacks_905	 0	 1	 02	 1	 21	 1.130362e+02	 SnoBall.bmp	 PayDay.bmp	 44	 49	 1	 i	 2	 0	 540.28	 0.57	 0.49	 
caau_snacks_905	 0	 1	 02	 1	 22	 1.180349e+02	 3Musketeers.bmp	 Skittles.bmp	 14	 15	 0	 i	 1	 1	 455.30	 1.52	 1.50	 
caau_snacks_905	 0	 1	 02	 1	 23	 1.220338e+02	 MilkyWay.bmp	 Granolabar.bmp	 10	 17	 1	 i	 1	 0	 535.13	 1.67	 1.48	 
caau_snacks_905	 0	 1	 02	 1	 24	 1.260326e+02	 Skittles.bmp	 PopTartsCinnamon.bmp	 15	 8	 1	 i	 1	 0	 976.97	 1.50	 1.95	 
caau_snacks_905	 0	 1	 02	 1	 25	 1.300315e+02	 HoHo.bmp	 Jollyrancherred.bmp	 52	 54	 1	 i	 2	 0	 571.14	 0.47	 0.46	 
caau_snacks_905	 0	 1	 02	 1	 26	 1.330309e+02	 Oreos.bmp	 HoHo.bmp	 48	 52	 0	 u	 2	 0	 686.03	 0.49	 0.47	 
caau_snacks_905	 0	 1	 02	 1	 27	 1.410288e+02	 PopTartsCinnamon.bmp	 PeanutMMs.bmp	 8	 12	 0	 u	 1	 0	 767.59	 1.95	 1.55	 
caau_snacks_905	 0	 1	 02	 1	 28	 1.440280e+02	 Jollyranchergreen.bmp	 AnimalCrackers.bmp	 43	 47	 0	 u	 2	 0	 764.15	 0.60	 0.51	 
caau_snacks_905	 0	 1	 02	 1	 29	 1.490265e+02	 Hersheymilk_several.bmp	 Lollipopred.bmp	 46	 53	 0	 u	 2	 0	 777.56	 0.56	 0.47	 
caau_snacks_905	 0	 1	 02	 1	 30	 1.540417e+02	 SourSkittles.bmp	 Skittles.bmp	 16	 15	 0	 i	 1	 1	 590.81	 1.50	 1.50	 
caau_snacks_905	 0	 1	 02	 1	 31	 1.620397e+02	 Cupcakes.bmp	 Streusel.bmp	 41	 42	 0	 i	 5	 1	 975.84	 0.78	 0.60	 
caau_snacks_905	 0	 1	 02	 1	 32	 1.660381e+02	 SourSkittles.bmp	 MilkyWay.bmp	 16	 10	 0	 u	 1	 0	 572.32	 1.50	 1.67	 
caau_snacks_905	 0	 1	 02	 1	 33	 1.690376e+02	 AnimalCrackers.bmp	 Oreos.bmp	 47	 48	 1	 u	 2	 1	 682.54	 0.51	 0.49	 
caau_snacks_905	 0	 1	 02	 1	 34	 1.820342e+02	 Sourpatch.bmp	 PopTartsCinnamon.bmp	 13	 8	 1	 i	 1	 0	 833.99	 1.54	 1.95	 
caau_snacks_905	 0	 1	 02	 1	 35	 1.850333e+02	 Chocolate_mm.bmp	 MilkyWay.bmp	 11	 10	 0	 i	 1	 1	 658.75	 1.56	 1.67	 
caau_snacks_905	 0	 1	 02	 1	 36	 1.890324e+02	 Jollyranchergreen.bmp	 SnoBall.bmp	 43	 44	 0	 i	 2	 1	 915.09	 0.60	 0.57	 
caau_snacks_905	 0	 1	 02	 1	 37	 1.930314e+02	 Granolabar.bmp	 PeanutMMs.bmp	 17	 12	 0	 u	 1	 0	 673.23	 1.48	 1.55	 
caau_snacks_905	 0	 1	 02	 1	 38	 1.960306e+02	 PopTartsStrawberry.bmp	 SourSkittles.bmp	 7	 16	 1	 u	 1	 1	 512.79	 1.96	 1.50	 
caau_snacks_905	 0	 1	 02	 1	 39	 1.990297e+02	 Toberlorone.bmp	 MilkyWay.bmp	 9	 10	 0	 u	 1	 0	 753.33	 1.78	 1.67	 
caau_snacks_905	 0	 1	 02	 1	 40	 2.020290e+02	 Sourpatch.bmp	 Chocolate_mm.bmp	 13	 11	 1	 u	 1	 1	 553.58	 1.54	 1.56	 
caau_snacks_905	 0	 1	 02	 1	 41	 2.050279e+02	 Chocolate_mm.bmp	 PeanutMMs.bmp	 11	 12	 0	 u	 1	 0	 645.51	 1.56	 1.55	 
caau_snacks_905	 0	 1	 02	 1	 42	 2.090270e+02	 Granolabar.bmp	 Skittles.bmp	 17	 15	 0	 i	 1	 1	 525.59	 1.48	 1.50	 
caau_snacks_905	 0	 1	 02	 1	 43	 2.120429e+02	 Doritosranch.bmp	 Twix.bmp	 22	 21	 1	 i	 4	 0	 669.61	 1.20	 1.44	 
caau_snacks_905	 0	 1	 02	 1	 44	 2.150421e+02	 PayDay.bmp	 HoHo.bmp	 49	 52	 0	 i	 2	 1	 745.95	 0.49	 0.47	 
caau_snacks_905	 0	 1	 02	 1	 45	 2.200408e+02	 Oreos.bmp	 SnoBall.bmp	 48	 44	 0	 i	 2	 1	 753.43	 0.49	 0.57	 
caau_snacks_905	 0	 1	 02	 1	 46	 2.230397e+02	 Keeblerfudgestripes.bmp	 Oreos.bmp	 45	 48	 1	 i	 2	 0	 918.21	 0.57	 0.49	 
caau_snacks_905	 0	 1	 02	 1	 47	 2.270389e+02	 Lollipopred.bmp	 PayDay.bmp	 53	 49	 1	 u	 2	 1	 1027.80	 0.47	 0.49	 
caau_snacks_905	 0	 1	 02	 1	 48	 2.300381e+02	 Granolabar.bmp	 FamousAmos_small.bmp	 17	 18	 0	 u	 1	 0	 615.65	 1.48	 1.48	 
caau_snacks_905	 0	 1	 02	 1	 49	 2.390353e+02	 AnimalCrackers.bmp	 Jollyrancherred.bmp	 47	 54	 1	 u	 2	 1	 915.39	 0.51	 0.46	 
caau_snacks_905	 0	 1	 02	 1	 50	 2.450339e+02	 Sourpatch.bmp	 Granolabar.bmp	 13	 17	 1	 i	 1	 0	 803.42	 1.54	 1.48	 
caau_snacks_905	 0	 1	 02	 1	 51	 2.510325e+02	 Lollipopred.bmp	 Oreos.bmp	 53	 48	 1	 u	 2	 1	 764.94	 0.47	 0.49	 
caau_snacks_905	 0	 1	 02	 1	 52	 2.580306e+02	 Jollyrancherred.bmp	 SnoBall.bmp	 54	 44	 0	 u	 2	 0	 852.73	 0.46	 0.57	 
caau_snacks_905	 0	 1	 02	 1	 53	 2.610298e+02	 PopTartsCinnamon.bmp	 PopTartsStrawberry.bmp	 8	 7	 0	 i	 1	 1	 638.79	 1.95	 1.96	 
caau_snacks_905	 0	 1	 02	 1	 54	 2.670278e+02	 SnoBall.bmp	 Reeses.bmp	 44	 51	 1	 i	 2	 0	 593.36	 0.57	 0.48	 
caau_snacks_905	 0	 1	 02	 1	 55	 2.710270e+02	 HoHo.bmp	 Reeses.bmp	 52	 51	 1	 u	 2	 1	 644.09	 0.47	 0.48	 
caau_snacks_905	 0	 1	 02	 1	 56	 2.780246e+02	 Hersheymilk_several.bmp	 AnimalCrackers.bmp	 46	 47	 0	 i	 2	 1	 871.54	 0.56	 0.51	 
caau_snacks_905	 0	 1	 02	 1	 57	 2.810410e+02	 Hersheykisses.bmp	 PayDay.bmp	 50	 49	 1	 u	 2	 1	 1024.31	 0.48	 0.49	 
caau_snacks_905	 0	 1	 02	 1	 58	 2.840402e+02	 3Musketeers.bmp	 PeanutMMs.bmp	 14	 12	 0	 u	 1	 0	 698.32	 1.52	 1.55	 
caau_snacks_905	 0	 1	 02	 1	 59	 2.920378e+02	 Jollyrancherred.bmp	 Lollipopred.bmp	 54	 53	 0	 u	 2	 0	 938.82	 0.46	 0.47	 
caau_snacks_905	 0	 1	 02	 1	 60	 2.970366e+02	 Sourpatch.bmp	 3Musketeers.bmp	 13	 14	 1	 i	 1	 0	 678.33	 1.54	 1.52	 
caau_snacks_905	 0	 1	 02	 1	 61	 3.030348e+02	 Doritosranch.bmp	 Twix.bmp	 22	 21	 1	 i	 4	 0	 761.66	 1.20	 1.44	 
caau_snacks_905	 0	 1	 02	 1	 62	 3.060339e+02	 Keeblerfudgestripes.bmp	 PayDay.bmp	 45	 49	 1	 u	 2	 1	 865.55	 0.57	 0.49	 
caau_snacks_905	 0	 1	 02	 1	 63	 3.140319e+02	 Sourpatch.bmp	 SourSkittles.bmp	 13	 16	 1	 i	 1	 0	 669.12	 1.54	 1.50	 
caau_snacks_905	 0	 1	 02	 1	 64	 3.180245e+02	 FamousAmos_small.bmp	 3Musketeers.bmp	 18	 14	 1	 i	 1	 0	 695.30	 1.48	 1.52	 
caau_snacks_905	 0	 1	 02	 1	 65	 3.270286e+02	 Keeblerfudgestripes.bmp	 Hersheymilk_several.bmp	 45	 46	 1	 i	 2	 0	 987.59	 0.57	 0.56	 
caau_snacks_905	 0	 1	 02	 1	 66	 3.300279e+02	 PeanutMMs.bmp	 SourSkittles.bmp	 12	 16	 1	 i	 1	 0	 657.88	 1.55	 1.50	 
caau_snacks_905	 0	 1	 02	 1	 67	 3.330269e+02	 Streusel.bmp	 Cupcakes.bmp	 42	 41	 1	 u	 5	 1	 861.95	 0.60	 0.78	 
caau_snacks_905	 0	 1	 02	 1	 68	 3.390419e+02	 Hersheykisses.bmp	 Jollyrancherred.bmp	 50	 54	 1	 u	 2	 1	 983.54	 0.48	 0.46	 
caau_snacks_905	 0	 1	 02	 1	 69	 3.430408e+02	 Jollyranchergreen.bmp	 Lollipopred.bmp	 43	 53	 0	 u	 2	 0	 641.10	 0.60	 0.47	 
caau_snacks_905	 0	 1	 02	 1	 70	 3.460257e+02	 Reeses.bmp	 Keeblerfudgestripes.bmp	 51	 45	 0	 i	 2	 1	 961.95	 0.48	 0.57	 
caau_snacks_905	 0	 1	 02	 1	 71	 3.500250e+02	 SourSkittles.bmp	 FamousAmos_small.bmp	 16	 18	 0	 u	 1	 0	 629.03	 1.50	 1.48	 
caau_snacks_905	 0	 1	 02	 1	 72	 3.580369e+02	 Chocolate_mm.bmp	 Skittles.bmp	 11	 15	 0	 i	 1	 1	 584.86	 1.56	 1.50	 
caau_snacks_905	 0	 1	 02	 1	 73	 3.610360e+02	 Toberlorone.bmp	 PopTartsStrawberry.bmp	 9	 7	 0	 i	 1	 1	 570.79	 1.78	 1.96	 
caau_snacks_905	 0	 1	 02	 1	 74	 3.650350e+02	 Hersheykisses.bmp	 Jollyranchergreen.bmp	 50	 43	 1	 u	 2	 1	 680.88	 0.48	 0.60	 
caau_snacks_905	 0	 1	 02	 1	 75	 3.740325e+02	 Sourpatch.bmp	 Toberlorone.bmp	 13	 9	 1	 i	 1	 0	 560.01	 1.54	 1.78	 
caau_snacks_905	 0	 1	 02	 1	 76	 3.780312e+02	 Reeses.bmp	 Lollipopred.bmp	 51	 53	 0	 i	 2	 1	 624.78	 0.48	 0.47	 
caau_snacks_905	 0	 1	 02	 1	 77	 3.840300e+02	 HoHo.bmp	 Jollyranchergreen.bmp	 52	 43	 1	 i	 2	 0	 712.69	 0.47	 0.60	 
caau_snacks_905	 0	 1	 02	 1	 78	 3.870291e+02	 KitKat_small.bmp	 MrGoodbar.bmp	 19	 20	 1	 u	 4	 1	 907.15	 1.48	 1.46	 
caau_snacks_905	 0	 1	 02	 1	 79	 3.900280e+02	 3Musketeers.bmp	 PopTartsStrawberry.bmp	 14	 7	 0	 i	 1	 1	 563.18	 1.52	 1.96	 
caau_snacks_905	 0	 1	 02	 1	 80	 3.980428e+02	 FamousAmos_small.bmp	 Toberlorone.bmp	 18	 9	 1	 i	 1	 0	 574.22	 1.48	 1.78	 
