subjectID	scanner	order	block	run	trial	onsettime	ImageLeft	ImageRight	bidIndexLeft	bidIndexRight	IsleftGo	Response	PairType	Outcome	RT	bidLeft	bidRight	
caau_snacks_919	 0	 1	 01	 1	 1	 2.032669e+00	 Milkduds.bmp	 Whatchamacallit.bmp	 51	 53	 0	 u	 2	 0	 691.72	 1.47	 1.03	 
caau_snacks_919	 0	 1	 01	 1	 2	 5.031433e+00	 100grand_small.bmp	 MilkyWay.bmp	 46	 44	 0	 i	 2	 1	 652.31	 1.51	 1.51	 
caau_snacks_919	 0	 1	 01	 1	 3	 8.030342e+00	 100grand_small.bmp	 3Musketeers.bmp	 46	 47	 0	 i	 2	 1	 794.40	 1.51	 1.50	 
caau_snacks_919	 0	 1	 01	 1	 4	 1.202864e+01	 Almondjoy.bmp	 Jollyrancherred.bmp	 41	 42	 0	 u	 5	 0	 815.02	 1.76	 1.52	 
caau_snacks_919	 0	 1	 01	 1	 5	 1.502748e+01	 Keeblerfudgestripes.bmp	 SourSkittles.bmp	 8	 10	 0	 u	 1	 0	 791.55	 2.54	 2.51	 
caau_snacks_919	 0	 1	 01	 1	 6	 1.802623e+01	 FamousAmos_small.bmp	 Whatchamacallit.bmp	 43	 53	 0	 u	 2	 0	 1147.52	 1.52	 1.03	 
caau_snacks_919	 0	 1	 01	 1	 7	 2.502293e+01	 Twix.bmp	 Ghiradelli_milk.bmp	 17	 7	 0	 i	 1	 1	 795.20	 2.02	 2.98	 
caau_snacks_919	 0	 1	 01	 1	 8	 3.003791e+01	 Snickers.bmp	 SnoBall.bmp	 21	 22	 0	 u	 4	 0	 680.34	 2.02	 2.02	 
caau_snacks_919	 0	 1	 01	 1	 9	 3.303635e+01	 FlamingCheetos.bmp	 Twinkie.bmp	 12	 9	 1	 u	 1	 1	 747.64	 2.49	 2.52	 
caau_snacks_919	 0	 1	 01	 1	 10	 3.603554e+01	 PopTartsCinnamon.bmp	 Twinkie.bmp	 13	 9	 1	 i	 1	 0	 1147.45	 2.23	 2.52	 
caau_snacks_919	 0	 1	 01	 1	 11	 4.003373e+01	 Granolabar.bmp	 Twix.bmp	 18	 17	 1	 i	 1	 0	 965.05	 2.02	 2.02	 
caau_snacks_919	 0	 1	 01	 1	 12	 4.503179e+01	 Cheetos.bmp	 FamousAmos_small.bmp	 45	 43	 1	 i	 2	 0	 908.90	 1.51	 1.52	 
caau_snacks_919	 0	 1	 01	 1	 13	 5.002972e+01	 AnimalCrackers.bmp	 Nutterbutter.bmp	 14	 15	 0	 u	 1	 0	 1194.36	 2.03	 2.03	 
caau_snacks_919	 0	 1	 01	 1	 14	 5.302862e+01	 Ghiradelli_milk.bmp	 Keeblerfudgestripes.bmp	 7	 8	 1	 u	 1	 1	 743.64	 2.98	 2.54	 
caau_snacks_919	 0	 1	 01	 1	 15	 6.002532e+01	 AnimalCrackers.bmp	 SourSkittles.bmp	 14	 10	 0	 i	 1	 1	 615.72	 2.03	 2.51	 
caau_snacks_919	 0	 1	 01	 1	 16	 6.302440e+01	 SourSkittles.bmp	 Goldfish.bmp	 10	 11	 1	 u	 1	 1	 679.85	 2.51	 2.51	 
caau_snacks_919	 0	 1	 01	 1	 17	 6.803871e+01	 Milkduds.bmp	 Butterfinger.bmp	 51	 52	 0	 i	 2	 1	 1064.88	 1.47	 1.17	 
caau_snacks_919	 0	 1	 01	 1	 18	 7.203743e+01	 Twinkie.bmp	 SourSkittles.bmp	 9	 10	 0	 i	 1	 1	 768.96	 2.52	 2.51	 
caau_snacks_919	 0	 1	 01	 1	 19	 7.703539e+01	 FlamingCheetos.bmp	 Goldfish.bmp	 12	 11	 1	 u	 1	 1	 621.57	 2.49	 2.51	 
caau_snacks_919	 0	 1	 01	 1	 20	 8.003412e+01	 Keeblerfudgestripes.bmp	 PopTartsCinnamon.bmp	 8	 13	 0	 u	 1	 0	 650.41	 2.54	 2.23	 
caau_snacks_919	 0	 1	 01	 1	 21	 8.303303e+01	 Riprolls.bmp	 Butterfinger.bmp	 48	 52	 0	 i	 2	 1	 781.24	 1.50	 1.17	 
caau_snacks_919	 0	 1	 01	 1	 22	 8.803089e+01	 TeddyGrahamschocolate.bmp	 MilkyWay.bmp	 49	 44	 0	 u	 2	 0	 847.17	 1.49	 1.51	 
caau_snacks_919	 0	 1	 01	 1	 23	 9.102983e+01	 100grand_small.bmp	 Jollyranchergreen.bmp	 46	 50	 0	 u	 2	 0	 1109.57	 1.51	 1.48	 
caau_snacks_919	 0	 1	 01	 1	 24	 9.502801e+01	 Jollyrancherred.bmp	 Almondjoy.bmp	 42	 41	 1	 i	 5	 0	 567.71	 1.52	 1.76	 
caau_snacks_919	 0	 1	 01	 1	 25	 9.802686e+01	 Whatchamacallit.bmp	 TeddyGrahamschocolate.bmp	 53	 49	 1	 i	 2	 0	 1166.58	 1.03	 1.49	 
caau_snacks_919	 0	 1	 01	 1	 26	 1.010256e+02	 3Musketeers.bmp	 FamousAmos_small.bmp	 47	 43	 1	 i	 2	 0	 989.71	 1.50	 1.52	 
caau_snacks_919	 0	 1	 01	 1	 27	 1.120379e+02	 AnimalCrackers.bmp	 PopTartsCinnamon.bmp	 14	 13	 0	 u	 1	 0	 999.12	 2.03	 2.23	 
caau_snacks_919	 0	 1	 01	 1	 28	 1.190349e+02	 Twinkie.bmp	 Granolabar.bmp	 9	 18	 0	 i	 1	 1	 831.62	 2.52	 2.02	 
caau_snacks_919	 0	 1	 01	 1	 29	 1.240328e+02	 Butterfinger.bmp	 Streusel.bmp	 52	 54	 1	 u	 2	 1	 957.89	 1.17	 1.02	 
caau_snacks_919	 0	 1	 01	 1	 30	 1.280311e+02	 Riprolls.bmp	 Whatchamacallit.bmp	 48	 53	 0	 i	 2	 1	 740.94	 1.50	 1.03	 
caau_snacks_919	 0	 1	 01	 1	 31	 1.380271e+02	 Cheetos.bmp	 Milkduds.bmp	 45	 51	 1	 u	 2	 1	 953.64	 1.51	 1.47	 
caau_snacks_919	 0	 1	 01	 1	 32	 1.410258e+02	 Jollyranchergreen.bmp	 Streusel.bmp	 50	 54	 1	 i	 2	 0	 693.90	 1.48	 1.02	 
caau_snacks_919	 0	 1	 01	 1	 33	 1.440247e+02	 Granolabar.bmp	 RitzBitz2.bmp	 18	 16	 1	 u	 1	 1	 912.86	 2.02	 2.02	 
caau_snacks_919	 0	 1	 01	 1	 34	 1.510386e+02	 Whatchamacallit.bmp	 Streusel.bmp	 53	 54	 1	 u	 2	 1	 1217.04	 1.03	 1.02	 
caau_snacks_919	 0	 1	 01	 1	 35	 1.550368e+02	 AnimalCrackers.bmp	 Granolabar.bmp	 14	 18	 0	 u	 1	 0	 865.68	 2.03	 2.02	 
caau_snacks_919	 0	 1	 01	 1	 36	 1.630336e+02	 RitzBitz2.bmp	 Nutterbutter.bmp	 16	 15	 0	 u	 1	 0	 1078.13	 2.02	 2.03	 
caau_snacks_919	 0	 1	 01	 1	 37	 1.690312e+02	 Twix.bmp	 PopTartsCinnamon.bmp	 17	 13	 0	 u	 1	 0	 868.47	 2.02	 2.23	 
caau_snacks_919	 0	 1	 01	 1	 38	 1.740292e+02	 TeddyGrahamschocolate.bmp	 3Musketeers.bmp	 49	 47	 0	 u	 2	 0	 677.96	 1.49	 1.50	 
caau_snacks_919	 0	 1	 01	 1	 39	 1.860241e+02	 AnimalCrackers.bmp	 Ghiradelli_milk.bmp	 14	 7	 0	 i	 1	 1	 841.79	 2.03	 2.98	 
caau_snacks_919	 0	 1	 01	 1	 40	 1.890395e+02	 FlamingCheetos.bmp	 Keeblerfudgestripes.bmp	 12	 8	 1	 u	 1	 1	 813.71	 2.49	 2.54	 
caau_snacks_919	 0	 1	 01	 1	 41	 1.950373e+02	 Butterfinger.bmp	 TeddyGrahamschocolate.bmp	 52	 49	 1	 i	 2	 0	 843.71	 1.17	 1.49	 
caau_snacks_919	 0	 1	 01	 1	 42	 1.980363e+02	 RitzBitz2.bmp	 SourSkittles.bmp	 16	 10	 0	 i	 1	 1	 816.66	 2.02	 2.51	 
caau_snacks_919	 0	 1	 01	 1	 43	 2.040337e+02	 Snickers.bmp	 SnoBall.bmp	 21	 22	 0	 u	 4	 0	 677.28	 2.02	 2.02	 
caau_snacks_919	 0	 1	 01	 1	 44	 2.110307e+02	 3Musketeers.bmp	 Streusel.bmp	 47	 54	 1	 u	 2	 1	 1400.62	 1.50	 1.02	 
caau_snacks_919	 0	 1	 01	 1	 45	 2.200271e+02	 FamousAmos_small.bmp	 Jollyranchergreen.bmp	 43	 50	 0	 u	 2	 0	 630.63	 1.52	 1.48	 
caau_snacks_919	 0	 1	 01	 1	 46	 2.230258e+02	 Granolabar.bmp	 Goldfish.bmp	 18	 11	 1	 u	 1	 1	 1092.48	 2.02	 2.51	 
caau_snacks_919	 0	 1	 01	 1	 47	 2.260246e+02	 Riprolls.bmp	 MilkyWay.bmp	 48	 44	 0	 i	 2	 1	 587.13	 1.50	 1.51	 
caau_snacks_919	 0	 1	 01	 1	 48	 2.300395e+02	 Milkduds.bmp	 3Musketeers.bmp	 51	 47	 0	 i	 2	 1	 843.68	 1.47	 1.50	 
caau_snacks_919	 0	 1	 01	 1	 49	 2.330386e+02	 Keeblerfudgestripes.bmp	 Nutterbutter.bmp	 8	 15	 0	 u	 1	 0	 685.98	 2.54	 2.03	 
caau_snacks_919	 0	 1	 01	 1	 50	 2.370368e+02	 Jollyranchergreen.bmp	 Milkduds.bmp	 50	 51	 1	 i	 2	 0	 689.66	 1.48	 1.47	 
caau_snacks_919	 0	 1	 01	 1	 51	 2.440339e+02	 Cheetos.bmp	 Riprolls.bmp	 45	 48	 1	 u	 2	 1	 793.28	 1.51	 1.50	 
caau_snacks_919	 0	 1	 01	 1	 52	 2.490317e+02	 Cheetos.bmp	 Streusel.bmp	 45	 54	 1	 u	 2	 1	 637.15	 1.51	 1.02	 
caau_snacks_919	 0	 1	 01	 1	 53	 2.550294e+02	 AnimalCrackers.bmp	 FlamingCheetos.bmp	 14	 12	 0	 i	 1	 1	 870.96	 2.03	 2.49	 
caau_snacks_919	 0	 1	 01	 1	 54	 2.580283e+02	 FlamingCheetos.bmp	 Twix.bmp	 12	 17	 1	 u	 1	 1	 871.83	 2.49	 2.02	 
caau_snacks_919	 0	 1	 01	 1	 55	 2.690402e+02	 Nutterbutter.bmp	 Goldfish.bmp	 15	 11	 1	 x	 1	 999	 999000.00	 2.03	 2.51	 
caau_snacks_919	 0	 1	 01	 1	 56	 2.720389e+02	 Ghiradelli_milk.bmp	 Goldfish.bmp	 7	 11	 1	 u	 1	 1	 689.45	 2.98	 2.51	 
caau_snacks_919	 0	 1	 01	 1	 57	 2.750378e+02	 RitzBitz2.bmp	 PopTartsCinnamon.bmp	 16	 13	 0	 u	 1	 0	 566.28	 2.02	 2.23	 
caau_snacks_919	 0	 1	 01	 1	 58	 2.800355e+02	 Cheetos.bmp	 TeddyGrahamschocolate.bmp	 45	 49	 1	 i	 2	 0	 823.46	 1.51	 1.49	 
caau_snacks_919	 0	 1	 01	 1	 59	 2.850337e+02	 Nutterbutter.bmp	 Twix.bmp	 15	 17	 1	 i	 1	 0	 645.79	 2.03	 2.02	 
caau_snacks_919	 0	 1	 01	 1	 60	 2.890320e+02	 Nutterbutter.bmp	 Twinkie.bmp	 15	 9	 1	 u	 1	 1	 815.43	 2.03	 2.52	 
caau_snacks_919	 0	 1	 01	 1	 61	 2.930305e+02	 Milkduds.bmp	 MilkyWay.bmp	 51	 44	 0	 i	 2	 1	 641.62	 1.47	 1.51	 
caau_snacks_919	 0	 1	 01	 1	 62	 2.990280e+02	 RitzBitz2.bmp	 FlamingCheetos.bmp	 16	 12	 0	 i	 1	 1	 594.03	 2.02	 2.49	 
caau_snacks_919	 0	 1	 01	 1	 63	 3.020269e+02	 TeddyGrahamschocolate.bmp	 Jollyranchergreen.bmp	 49	 50	 0	 u	 2	 0	 629.60	 1.49	 1.48	 
caau_snacks_919	 0	 1	 01	 1	 64	 3.090239e+02	 Fritos.bmp	 Funyuns_small.bmp	 39	 40	 1	 u	 5	 1	 708.99	 1.84	 1.82	 
caau_snacks_919	 0	 1	 01	 1	 65	 3.130391e+02	 FamousAmos_small.bmp	 Butterfinger.bmp	 43	 52	 0	 u	 2	 0	 536.76	 1.52	 1.17	 
caau_snacks_919	 0	 1	 01	 1	 66	 3.190365e+02	 Jollyranchergreen.bmp	 Riprolls.bmp	 50	 48	 1	 i	 2	 0	 555.35	 1.48	 1.50	 
caau_snacks_919	 0	 1	 01	 1	 67	 3.270333e+02	 Sourpatch.bmp	 PringlesRed.bmp	 19	 20	 1	 u	 4	 1	 878.30	 2.02	 2.02	 
caau_snacks_919	 0	 1	 01	 1	 68	 3.370236e+02	 MilkyWay.bmp	 FamousAmos_small.bmp	 44	 43	 1	 i	 2	 0	 544.22	 1.51	 1.52	 
caau_snacks_919	 0	 1	 01	 1	 69	 3.400280e+02	 100grand_small.bmp	 Butterfinger.bmp	 46	 52	 0	 i	 2	 1	 712.32	 1.51	 1.17	 
caau_snacks_919	 0	 1	 01	 1	 70	 3.470251e+02	 100grand_small.bmp	 Cheetos.bmp	 46	 45	 0	 i	 2	 1	 948.13	 1.51	 1.51	 
caau_snacks_919	 0	 1	 01	 1	 71	 3.570378e+02	 Keeblerfudgestripes.bmp	 Granolabar.bmp	 8	 18	 0	 u	 1	 0	 579.60	 2.54	 2.02	 
caau_snacks_919	 0	 1	 01	 1	 72	 3.620355e+02	 MilkyWay.bmp	 Streusel.bmp	 44	 54	 1	 u	 2	 1	 623.92	 1.51	 1.02	 
caau_snacks_919	 0	 1	 01	 1	 73	 3.660341e+02	 Twix.bmp	 SourSkittles.bmp	 17	 10	 0	 u	 1	 0	 571.79	 2.02	 2.51	 
caau_snacks_919	 0	 1	 01	 1	 74	 3.690329e+02	 Ghiradelli_milk.bmp	 RitzBitz2.bmp	 7	 16	 1	 u	 1	 1	 572.36	 2.98	 2.02	 
caau_snacks_919	 0	 1	 01	 1	 75	 3.730310e+02	 Whatchamacallit.bmp	 100grand_small.bmp	 53	 46	 1	 u	 2	 1	 848.28	 1.03	 1.51	 
caau_snacks_919	 0	 1	 01	 1	 76	 3.770295e+02	 Ghiradelli_milk.bmp	 Twinkie.bmp	 7	 9	 1	 u	 1	 1	 534.39	 2.98	 2.52	 
caau_snacks_919	 0	 1	 01	 1	 77	 3.840267e+02	 Fritos.bmp	 Funyuns_small.bmp	 39	 40	 1	 u	 5	 1	 822.85	 1.84	 1.82	 
caau_snacks_919	 0	 1	 01	 1	 78	 3.890245e+02	 3Musketeers.bmp	 Riprolls.bmp	 47	 48	 1	 u	 2	 1	 613.69	 1.50	 1.50	 
caau_snacks_919	 0	 1	 01	 1	 79	 3.920400e+02	 Sourpatch.bmp	 PringlesRed.bmp	 19	 20	 1	 u	 4	 1	 612.08	 2.02	 2.02	 
caau_snacks_919	 0	 1	 01	 1	 80	 3.980376e+02	 PopTartsCinnamon.bmp	 Goldfish.bmp	 13	 11	 1	 u	 1	 1	 477.77	 2.23	 2.51	 
