subjectID	 scanner	 order	 block	 run	 trial	 onsettime	 ImageLeft	 ImageRight	 bidIndexLeft	 bidIndexRight	 IsleftGo	 Response	 PairType	 Outcome	 RT	 bidLeft	 bidRight	 
BMI_bfr_116	 0	 2	 01	 2	 1	 2.018479e+00	 101.jpg	 137.jpg	 53	 40	 0	 i	 2	 1	 895.88	 0.25	 0.35	 
BMI_bfr_116	 0	 2	 01	 2	 2	 5.005161e+00	 104.jpg	 112.jpg	 22	 10	 1	 u	 1	 1	 834.33	 0.64	 0.74	 
BMI_bfr_116	 0	 2	 01	 2	 3	 9.009639e+00	 156.jpg	 147.jpg	 24	 57	 1	 u	 4	 1	 1116.30	 0.61	 0.20	 
BMI_bfr_116	 0	 2	 01	 2	 4	 1.501637e+01	 142.jpg	 141.jpg	 35	 26	 0	 i	 3	 1	 622.31	 0.40	 0.55	 
BMI_bfr_116	 0	 2	 01	 2	 5	 2.100643e+01	 120.jpg	 159.jpg	 23	 38	 1	 i	 3	 0	 730.07	 0.64	 0.36	 
BMI_bfr_116	 0	 2	 01	 2	 6	 2.601202e+01	 125.jpg	 109.jpg	 56	 4	 0	 i	 4	 1	 809.73	 0.21	 0.87	 
BMI_bfr_116	 0	 2	 01	 2	 7	 3.001650e+01	 114.jpg	 111.jpg	 14	 18	 1	 u	 1	 1	 866.63	 0.70	 0.67	 
BMI_bfr_116	 0	 2	 01	 2	 8	 3.502211e+01	 112.jpg	 106.jpg	 10	 8	 0	 i	 1	 1	 777.54	 0.74	 0.76	 
BMI_bfr_116	 0	 2	 01	 2	 9	 4.101215e+01	 139.jpg	 112.jpg	 17	 10	 1	 u	 1	 1	 941.50	 0.68	 0.74	 
BMI_bfr_116	 0	 2	 01	 2	 10	 4.401551e+01	 106.jpg	 130.jpg	 8	 12	 1	 u	 1	 1	 593.27	 0.76	 0.72	 
BMI_bfr_116	 0	 2	 01	 2	 11	 4.701887e+01	 134.jpg	 136.jpg	 48	 39	 1	 u	 2	 1	 1291.33	 0.28	 0.35	 
BMI_bfr_116	 0	 2	 01	 2	 12	 5.100668e+01	 107.jpg	 113.jpg	 19	 21	 1	 u	 1	 1	 656.21	 0.67	 0.65	 
BMI_bfr_116	 0	 2	 01	 2	 13	 5.601227e+01	 106.jpg	 160.jpg	 8	 15	 1	 u	 1	 1	 555.81	 0.76	 0.69	 
BMI_bfr_116	 0	 2	 01	 2	 14	 5.901563e+01	 150.jpg	 101.jpg	 41	 53	 1	 u	 2	 1	 1062.64	 0.33	 0.25	 
BMI_bfr_116	 0	 2	 01	 2	 15	 6.201901e+01	 115.jpg	 154.jpg	 25	 36	 1	 i	 4	 0	 793.10	 0.60	 0.38	 
BMI_bfr_116	 0	 2	 01	 2	 16	 6.600680e+01	 149.jpg	 137.jpg	 47	 40	 0	 i	 2	 1	 697.98	 0.28	 0.35	 
BMI_bfr_116	 0	 2	 01	 2	 17	 8.000580e+01	 160.jpg	 104.jpg	 15	 22	 0	 i	 1	 1	 852.14	 0.69	 0.64	 
BMI_bfr_116	 0	 2	 01	 2	 18	 8.801477e+01	 134.jpg	 126.jpg	 48	 45	 1	 i	 2	 0	 988.53	 0.28	 0.29	 
BMI_bfr_116	 0	 2	 01	 2	 19	 9.402149e+01	 113.jpg	 114.jpg	 21	 14	 0	 i	 1	 1	 1045.84	 0.65	 0.70	 
BMI_bfr_116	 0	 2	 01	 2	 20	 9.700819e+01	 118.jpg	 106.jpg	 20	 8	 0	 i	 1	 1	 556.79	 0.66	 0.76	 
BMI_bfr_116	 0	 2	 01	 2	 21	 1.010127e+02	 107.jpg	 118.jpg	 19	 20	 1	 u	 1	 1	 962.48	 0.67	 0.66	 
BMI_bfr_116	 0	 2	 01	 2	 22	 1.070194e+02	 107.jpg	 112.jpg	 19	 10	 1	 u	 1	 1	 1064.81	 0.67	 0.74	 
BMI_bfr_116	 0	 2	 01	 2	 23	 1.100061e+02	 108.jpg	 123.jpg	 13	 16	 0	 i	 1	 1	 1273.29	 0.71	 0.68	 
BMI_bfr_116	 0	 2	 01	 2	 24	 1.130094e+02	 156.jpg	 129.jpg	 24	 37	 1	 u	 4	 1	 1082.52	 0.61	 0.36	 
BMI_bfr_116	 0	 2	 01	 2	 25	 1.160128e+02	 151.jpg	 117.jpg	 58	 6	 0	 i	 3	 1	 678.02	 0.20	 0.85	 
BMI_bfr_116	 0	 2	 01	 2	 26	 1.230206e+02	 158.jpg	 150.jpg	 42	 41	 0	 i	 2	 1	 1095.56	 0.31	 0.33	 
BMI_bfr_116	 0	 2	 01	 2	 27	 1.260073e+02	 101.jpg	 119.jpg	 53	 43	 0	 i	 2	 1	 1450.32	 0.25	 0.31	 
BMI_bfr_116	 0	 2	 01	 2	 28	 1.290107e+02	 125.jpg	 156.jpg	 56	 24	 0	 x	 4	 999	 999000.00	 0.21	 0.61	 
BMI_bfr_116	 0	 2	 01	 2	 29	 1.340163e+02	 152.jpg	 135.jpg	 51	 52	 1	 u	 2	 1	 630.38	 0.27	 0.26	 
BMI_bfr_116	 0	 2	 01	 2	 30	 1.370196e+02	 149.jpg	 132.jpg	 47	 49	 0	 i	 2	 1	 687.13	 0.28	 0.28	 
BMI_bfr_116	 0	 2	 01	 2	 31	 1.410074e+02	 111.jpg	 104.jpg	 18	 22	 0	 i	 1	 1	 625.81	 0.67	 0.64	 
BMI_bfr_116	 0	 2	 01	 2	 32	 1.470142e+02	 149.jpg	 134.jpg	 47	 48	 0	 i	 2	 1	 604.34	 0.28	 0.28	 
BMI_bfr_116	 0	 2	 01	 2	 33	 1.500175e+02	 126.jpg	 137.jpg	 45	 40	 0	 i	 2	 1	 1066.17	 0.29	 0.35	 
BMI_bfr_116	 0	 2	 01	 2	 34	 1.570087e+02	 130.jpg	 102.jpg	 12	 9	 0	 i	 1	 1	 656.51	 0.72	 0.75	 
BMI_bfr_116	 0	 2	 01	 2	 35	 1.620143e+02	 140.jpg	 157.jpg	 50	 46	 0	 i	 2	 1	 792.43	 0.27	 0.29	 
BMI_bfr_116	 0	 2	 01	 2	 36	 1.660188e+02	 152.jpg	 149.jpg	 51	 47	 1	 u	 2	 1	 601.81	 0.27	 0.28	 
BMI_bfr_116	 0	 2	 01	 2	 37	 1.690055e+02	 135.jpg	 137.jpg	 52	 40	 0	 i	 2	 1	 742.79	 0.26	 0.35	 
BMI_bfr_116	 0	 2	 01	 2	 38	 1.720088e+02	 118.jpg	 114.jpg	 20	 14	 0	 u	 1	 0	 867.06	 0.66	 0.70	 
BMI_bfr_116	 0	 2	 01	 2	 39	 1.820200e+02	 114.jpg	 160.jpg	 14	 15	 1	 u	 1	 1	 925.10	 0.70	 0.69	 
BMI_bfr_116	 0	 2	 01	 2	 40	 1.930157e+02	 158.jpg	 134.jpg	 42	 48	 0	 i	 2	 1	 876.22	 0.31	 0.28	 
BMI_bfr_116	 0	 2	 01	 2	 41	 1.980213e+02	 155.jpg	 149.jpg	 54	 47	 1	 u	 2	 1	 719.55	 0.24	 0.28	 
BMI_bfr_116	 0	 2	 01	 2	 42	 2.070147e+02	 139.jpg	 146.jpg	 17	 7	 1	 i	 1	 0	 1210.33	 0.68	 0.79	 
BMI_bfr_116	 0	 2	 01	 2	 43	 2.100180e+02	 140.jpg	 132.jpg	 50	 49	 0	 i	 2	 1	 749.61	 0.27	 0.28	 
BMI_bfr_116	 0	 2	 01	 2	 44	 2.150070e+02	 124.jpg	 160.jpg	 11	 15	 1	 u	 1	 1	 722.13	 0.73	 0.69	 
BMI_bfr_116	 0	 2	 01	 2	 45	 2.180103e+02	 150.jpg	 135.jpg	 41	 52	 1	 i	 2	 0	 947.65	 0.33	 0.26	 
BMI_bfr_116	 0	 2	 01	 2	 46	 2.270204e+02	 123.jpg	 113.jpg	 16	 21	 1	 u	 1	 1	 667.98	 0.68	 0.65	 
BMI_bfr_116	 0	 2	 01	 2	 47	 2.370149e+02	 102.jpg	 118.jpg	 9	 20	 1	 u	 1	 1	 742.68	 0.75	 0.66	 
BMI_bfr_116	 0	 2	 01	 2	 48	 2.400183e+02	 107.jpg	 130.jpg	 19	 12	 1	 u	 1	 1	 788.20	 0.67	 0.72	 
BMI_bfr_116	 0	 2	 01	 2	 49	 2.470094e+02	 131.jpg	 150.jpg	 44	 41	 0	 i	 2	 1	 671.15	 0.30	 0.33	 
BMI_bfr_116	 0	 2	 01	 2	 50	 2.500128e+02	 155.jpg	 101.jpg	 54	 53	 1	 u	 2	 1	 851.62	 0.24	 0.25	 
BMI_bfr_116	 0	 2	 01	 2	 51	 2.530162e+02	 136.jpg	 132.jpg	 39	 49	 0	 x	 2	 999	 999000.00	 0.35	 0.28	 
BMI_bfr_116	 0	 2	 01	 2	 52	 2.560195e+02	 148.jpg	 121.jpg	 55	 3	 0	 i	 3	 1	 582.70	 0.23	 0.91	 
BMI_bfr_116	 0	 2	 01	 2	 53	 2.590062e+02	 108.jpg	 114.jpg	 13	 14	 0	 i	 1	 1	 622.39	 0.71	 0.70	 
BMI_bfr_116	 0	 2	 01	 2	 54	 2.630107e+02	 113.jpg	 106.jpg	 21	 8	 0	 i	 1	 1	 578.09	 0.65	 0.76	 
BMI_bfr_116	 0	 2	 01	 2	 55	 2.660141e+02	 126.jpg	 150.jpg	 45	 41	 0	 i	 2	 1	 668.57	 0.29	 0.33	 
BMI_bfr_116	 0	 2	 01	 2	 56	 2.730219e+02	 124.jpg	 111.jpg	 11	 18	 1	 u	 1	 1	 636.11	 0.73	 0.67	 
BMI_bfr_116	 0	 2	 01	 2	 57	 2.810142e+02	 106.jpg	 108.jpg	 8	 13	 1	 u	 1	 1	 507.95	 0.76	 0.71	 
BMI_bfr_116	 0	 2	 01	 2	 58	 2.880053e+02	 135.jpg	 132.jpg	 52	 49	 0	 u	 2	 0	 1347.11	 0.26	 0.28	 
BMI_bfr_116	 0	 2	 01	 2	 59	 2.970154e+02	 103.jpg	 129.jpg	 5	 37	 1	 i	 4	 0	 1292.41	 0.86	 0.36	 
BMI_bfr_116	 0	 2	 01	 2	 60	 3.060088e+02	 139.jpg	 118.jpg	 17	 20	 1	 i	 1	 0	 815.66	 0.68	 0.66	 
BMI_bfr_116	 0	 2	 01	 2	 61	 3.110144e+02	 146.jpg	 107.jpg	 7	 19	 0	 i	 1	 1	 951.54	 0.79	 0.67	 
BMI_bfr_116	 0	 2	 01	 2	 62	 3.140178e+02	 104.jpg	 108.jpg	 22	 13	 1	 u	 1	 1	 760.86	 0.64	 0.71	 
BMI_bfr_116	 0	 2	 01	 2	 63	 3.170045e+02	 141.jpg	 151.jpg	 26	 58	 1	 u	 3	 1	 789.29	 0.55	 0.20	 
BMI_bfr_116	 0	 2	 01	 2	 64	 3.200078e+02	 131.jpg	 134.jpg	 44	 48	 0	 i	 2	 1	 778.57	 0.30	 0.28	 
BMI_bfr_116	 0	 2	 01	 2	 65	 3.240123e+02	 136.jpg	 155.jpg	 39	 54	 0	 i	 2	 1	 891.76	 0.35	 0.24	 
BMI_bfr_116	 0	 2	 01	 2	 66	 3.310202e+02	 136.jpg	 157.jpg	 39	 46	 0	 x	 2	 999	 999000.00	 0.35	 0.29	 
BMI_bfr_116	 0	 2	 01	 2	 67	 3.340068e+02	 124.jpg	 130.jpg	 11	 12	 1	 u	 1	 1	 595.18	 0.73	 0.72	 
BMI_bfr_116	 0	 2	 01	 2	 68	 3.380113e+02	 123.jpg	 146.jpg	 16	 7	 1	 u	 1	 1	 562.14	 0.68	 0.79	 
BMI_bfr_116	 0	 2	 01	 2	 69	 3.420158e+02	 158.jpg	 119.jpg	 42	 43	 0	 i	 2	 1	 675.33	 0.31	 0.31	 
BMI_bfr_116	 0	 2	 01	 2	 70	 3.460203e+02	 120.jpg	 148.jpg	 23	 55	 1	 u	 3	 1	 619.78	 0.64	 0.23	 
BMI_bfr_116	 0	 2	 01	 2	 71	 3.500081e+02	 152.jpg	 136.jpg	 51	 39	 1	 u	 2	 1	 490.94	 0.27	 0.35	 
BMI_bfr_116	 0	 2	 01	 2	 72	 3.540126e+02	 137.jpg	 140.jpg	 40	 50	 1	 u	 2	 1	 739.12	 0.35	 0.27	 
BMI_bfr_116	 0	 2	 01	 2	 73	 3.580171e+02	 125.jpg	 103.jpg	 56	 5	 0	 i	 4	 1	 987.35	 0.21	 0.86	 
BMI_bfr_116	 0	 2	 01	 2	 74	 3.620215e+02	 101.jpg	 132.jpg	 53	 49	 0	 i	 2	 1	 1078.06	 0.25	 0.28	 
BMI_bfr_116	 0	 2	 01	 2	 75	 3.660093e+02	 130.jpg	 139.jpg	 12	 17	 0	 u	 1	 0	 634.16	 0.72	 0.68	 
BMI_bfr_116	 0	 2	 01	 2	 76	 3.700138e+02	 131.jpg	 157.jpg	 44	 46	 0	 i	 2	 1	 792.40	 0.30	 0.29	 
BMI_bfr_116	 0	 2	 01	 2	 77	 3.740183e+02	 115.jpg	 147.jpg	 25	 57	 1	 i	 4	 0	 635.56	 0.60	 0.20	 
BMI_bfr_116	 0	 2	 01	 2	 78	 3.780061e+02	 148.jpg	 117.jpg	 55	 6	 0	 i	 3	 1	 709.19	 0.23	 0.85	 
BMI_bfr_116	 0	 2	 01	 2	 79	 3.820106e+02	 117.jpg	 142.jpg	 6	 35	 1	 u	 3	 1	 631.14	 0.85	 0.40	 
BMI_bfr_116	 0	 2	 01	 2	 80	 3.860151e+02	 152.jpg	 140.jpg	 51	 50	 1	 u	 2	 1	 789.34	 0.27	 0.27	 
