subjectID	 scanner	 order	 block	 run	 trial	 onsettime	 ImageLeft	 ImageRight	 bidIndexLeft	 bidIndexRight	 IsleftGo	 Response	 PairType	 Outcome	 RT	 bidLeft	 bidRight	 
BMI_bfr_128	 0	 2	 02	 2	 1	 2.018522e+00	 127.jpg	 144.jpg	 19	 10	 1	 i	 1	 0	 900.55	 0.65	 0.75	 
BMI_bfr_128	 0	 2	 02	 2	 2	 7.007441e+00	 158.jpg	 136.jpg	 41	 53	 1	 i	 2	 0	 850.61	 0.40	 0.19	 
BMI_bfr_128	 0	 2	 02	 2	 3	 1.501641e+01	 124.jpg	 126.jpg	 55	 23	 0	 i	 3	 1	 840.77	 0.18	 0.59	 
BMI_bfr_128	 0	 2	 02	 2	 4	 1.801977e+01	 114.jpg	 126.jpg	 58	 23	 0	 i	 3	 1	 728.78	 0.13	 0.59	 
BMI_bfr_128	 0	 2	 02	 2	 5	 2.501094e+01	 123.jpg	 153.jpg	 43	 39	 1	 i	 2	 0	 949.23	 0.38	 0.41	 
BMI_bfr_128	 0	 2	 02	 2	 6	 2.801430e+01	 146.jpg	 113.jpg	 17	 21	 1	 i	 1	 0	 1152.23	 0.69	 0.63	 
BMI_bfr_128	 0	 2	 02	 2	 7	 3.900995e+01	 151.jpg	 113.jpg	 14	 21	 1	 i	 1	 0	 810.82	 0.69	 0.63	 
BMI_bfr_128	 0	 2	 02	 2	 8	 4.301443e+01	 152.jpg	 154.jpg	 9	 18	 1	 u	 1	 1	 620.26	 0.76	 0.67	 
BMI_bfr_128	 0	 2	 02	 2	 9	 4.701891e+01	 155.jpg	 113.jpg	 22	 21	 1	 i	 1	 0	 575.95	 0.62	 0.63	 
BMI_bfr_128	 0	 2	 02	 2	 10	 5.000560e+01	 110.jpg	 108.jpg	 38	 6	 0	 i	 3	 1	 773.15	 0.43	 0.79	 
BMI_bfr_128	 0	 2	 02	 2	 11	 5.300896e+01	 141.jpg	 131.jpg	 47	 54	 0	 i	 2	 1	 694.92	 0.28	 0.19	 
BMI_bfr_128	 0	 2	 02	 2	 12	 5.801456e+01	 156.jpg	 141.jpg	 49	 47	 1	 i	 2	 0	 909.55	 0.25	 0.28	 
BMI_bfr_128	 0	 2	 02	 2	 13	 6.201904e+01	 136.jpg	 156.jpg	 53	 49	 0	 i	 2	 1	 876.52	 0.19	 0.25	 
BMI_bfr_128	 0	 2	 02	 2	 14	 7.101246e+01	 128.jpg	 119.jpg	 5	 37	 1	 u	 4	 1	 647.23	 0.79	 0.44	 
BMI_bfr_128	 0	 2	 02	 2	 15	 7.401581e+01	 160.jpg	 158.jpg	 45	 41	 0	 i	 2	 1	 647.78	 0.32	 0.40	 
BMI_bfr_128	 0	 2	 02	 2	 16	 7.902143e+01	 137.jpg	 115.jpg	 36	 4	 0	 i	 4	 1	 738.65	 0.46	 0.79	 
BMI_bfr_128	 0	 2	 02	 2	 17	 8.501146e+01	 105.jpg	 156.jpg	 52	 49	 0	 i	 2	 1	 970.13	 0.20	 0.25	 
BMI_bfr_128	 0	 2	 02	 2	 18	 8.801483e+01	 149.jpg	 136.jpg	 48	 53	 1	 i	 2	 0	 813.18	 0.27	 0.19	 
BMI_bfr_128	 0	 2	 02	 2	 19	 9.302044e+01	 115.jpg	 159.jpg	 4	 57	 1	 u	 4	 1	 667.86	 0.79	 0.18	 
BMI_bfr_128	 0	 2	 02	 2	 20	 9.700824e+01	 148.jpg	 102.jpg	 56	 25	 0	 i	 4	 1	 651.39	 0.18	 0.56	 
BMI_bfr_128	 0	 2	 02	 2	 21	 1.020138e+02	 154.jpg	 103.jpg	 18	 8	 0	 i	 1	 1	 708.54	 0.67	 0.76	 
BMI_bfr_128	 0	 2	 02	 2	 22	 1.070194e+02	 112.jpg	 127.jpg	 13	 19	 0	 u	 1	 0	 923.16	 0.70	 0.65	 
BMI_bfr_128	 0	 2	 02	 2	 23	 1.100061e+02	 123.jpg	 160.jpg	 43	 45	 1	 u	 2	 1	 940.38	 0.38	 0.32	 
BMI_bfr_128	 0	 2	 02	 2	 24	 1.130095e+02	 141.jpg	 149.jpg	 47	 48	 0	 u	 2	 0	 862.14	 0.28	 0.27	 
BMI_bfr_128	 0	 2	 02	 2	 25	 1.250063e+02	 140.jpg	 136.jpg	 40	 53	 1	 u	 2	 1	 757.15	 0.41	 0.19	 
BMI_bfr_128	 0	 2	 02	 2	 26	 1.290107e+02	 103.jpg	 118.jpg	 8	 7	 1	 i	 1	 0	 555.30	 0.76	 0.79	 
BMI_bfr_128	 0	 2	 02	 2	 27	 1.320141e+02	 146.jpg	 144.jpg	 17	 10	 1	 u	 1	 1	 690.93	 0.69	 0.75	 
BMI_bfr_128	 0	 2	 02	 2	 28	 1.390053e+02	 134.jpg	 110.jpg	 3	 38	 1	 u	 3	 1	 596.27	 0.84	 0.43	 
BMI_bfr_128	 0	 2	 02	 2	 29	 1.420086e+02	 124.jpg	 134.jpg	 55	 3	 0	 i	 3	 1	 1013.06	 0.18	 0.84	 
BMI_bfr_128	 0	 2	 02	 2	 30	 1.490165e+02	 140.jpg	 129.jpg	 40	 42	 1	 u	 2	 1	 890.54	 0.41	 0.39	 
BMI_bfr_128	 0	 2	 02	 2	 31	 1.540054e+02	 102.jpg	 159.jpg	 25	 57	 1	 u	 4	 1	 491.89	 0.56	 0.18	 
BMI_bfr_128	 0	 2	 02	 2	 32	 1.580099e+02	 105.jpg	 125.jpg	 52	 51	 0	 u	 2	 0	 931.30	 0.20	 0.22	 
BMI_bfr_128	 0	 2	 02	 2	 33	 1.630155e+02	 158.jpg	 104.jpg	 41	 50	 1	 i	 2	 0	 752.14	 0.40	 0.23	 
BMI_bfr_128	 0	 2	 02	 2	 34	 1.690055e+02	 140.jpg	 104.jpg	 40	 50	 1	 i	 2	 0	 736.12	 0.41	 0.23	 
BMI_bfr_128	 0	 2	 02	 2	 35	 1.730100e+02	 112.jpg	 130.jpg	 13	 16	 0	 u	 1	 0	 691.84	 0.70	 0.69	 
BMI_bfr_128	 0	 2	 02	 2	 36	 1.760134e+02	 147.jpg	 127.jpg	 12	 19	 0	 u	 1	 0	 636.09	 0.71	 0.65	 
BMI_bfr_128	 0	 2	 02	 2	 37	 1.790167e+02	 125.jpg	 129.jpg	 51	 42	 1	 i	 2	 0	 704.12	 0.22	 0.39	 
BMI_bfr_128	 0	 2	 02	 2	 38	 1.820201e+02	 130.jpg	 118.jpg	 16	 7	 1	 i	 1	 0	 569.66	 0.69	 0.79	 
BMI_bfr_128	 0	 2	 02	 2	 39	 1.860079e+02	 101.jpg	 106.jpg	 11	 20	 1	 u	 1	 1	 665.82	 0.73	 0.64	 
BMI_bfr_128	 0	 2	 02	 2	 40	 1.900124e+02	 157.jpg	 138.jpg	 26	 35	 1	 u	 3	 1	 835.24	 0.54	 0.46	 
BMI_bfr_128	 0	 2	 02	 2	 41	 1.960191e+02	 128.jpg	 137.jpg	 5	 36	 1	 i	 4	 0	 656.26	 0.79	 0.46	 
BMI_bfr_128	 0	 2	 02	 2	 42	 2.050125e+02	 103.jpg	 143.jpg	 8	 15	 1	 u	 1	 1	 685.78	 0.76	 0.69	 
BMI_bfr_128	 0	 2	 02	 2	 43	 2.080159e+02	 140.jpg	 153.jpg	 40	 39	 1	 u	 2	 1	 731.30	 0.41	 0.41	 
BMI_bfr_128	 0	 2	 02	 2	 44	 2.120204e+02	 143.jpg	 155.jpg	 15	 22	 0	 u	 1	 0	 518.23	 0.69	 0.62	 
BMI_bfr_128	 0	 2	 02	 2	 45	 2.170093e+02	 141.jpg	 123.jpg	 47	 43	 0	 u	 2	 0	 940.84	 0.28	 0.38	 
BMI_bfr_128	 0	 2	 02	 2	 46	 2.200126e+02	 127.jpg	 143.jpg	 19	 15	 1	 i	 1	 0	 648.83	 0.65	 0.69	 
BMI_bfr_128	 0	 2	 02	 2	 47	 2.240171e+02	 106.jpg	 152.jpg	 20	 9	 0	 i	 1	 1	 559.52	 0.64	 0.76	 
BMI_bfr_128	 0	 2	 02	 2	 48	 2.340116e+02	 103.jpg	 106.jpg	 8	 20	 1	 u	 1	 1	 555.48	 0.76	 0.64	 
BMI_bfr_128	 0	 2	 02	 2	 49	 2.370150e+02	 138.jpg	 108.jpg	 35	 6	 0	 i	 3	 1	 612.27	 0.46	 0.79	 
BMI_bfr_128	 0	 2	 02	 2	 50	 2.470095e+02	 160.jpg	 135.jpg	 45	 46	 0	 i	 2	 1	 664.42	 0.32	 0.31	 
BMI_bfr_128	 0	 2	 02	 2	 51	 2.520152e+02	 151.jpg	 112.jpg	 14	 13	 1	 i	 1	 0	 507.76	 0.69	 0.70	 
BMI_bfr_128	 0	 2	 02	 2	 52	 2.570041e+02	 106.jpg	 151.jpg	 20	 14	 0	 i	 1	 1	 851.59	 0.64	 0.69	 
BMI_bfr_128	 0	 2	 02	 2	 53	 2.620097e+02	 147.jpg	 130.jpg	 12	 16	 0	 i	 1	 1	 1055.03	 0.71	 0.69	 
BMI_bfr_128	 0	 2	 02	 2	 54	 2.650130e+02	 105.jpg	 140.jpg	 52	 40	 0	 i	 2	 1	 785.49	 0.20	 0.41	 
BMI_bfr_128	 0	 2	 02	 2	 55	 2.690175e+02	 149.jpg	 120.jpg	 48	 44	 1	 i	 2	 0	 583.75	 0.27	 0.36	 
BMI_bfr_128	 0	 2	 02	 2	 56	 2.770098e+02	 104.jpg	 156.jpg	 50	 49	 0	 u	 2	 0	 680.51	 0.23	 0.25	 
BMI_bfr_128	 0	 2	 02	 2	 57	 2.810143e+02	 137.jpg	 139.jpg	 36	 24	 0	 i	 4	 1	 872.47	 0.46	 0.58	 
BMI_bfr_128	 0	 2	 02	 2	 58	 2.840177e+02	 155.jpg	 144.jpg	 22	 10	 1	 i	 1	 0	 670.50	 0.62	 0.75	 
BMI_bfr_128	 0	 2	 02	 2	 59	 2.870210e+02	 125.jpg	 153.jpg	 51	 39	 1	 i	 2	 0	 896.01	 0.22	 0.41	 
BMI_bfr_128	 0	 2	 02	 2	 60	 3.000189e+02	 129.jpg	 156.jpg	 42	 49	 0	 u	 2	 0	 836.21	 0.39	 0.25	 
BMI_bfr_128	 0	 2	 02	 2	 61	 3.030056e+02	 151.jpg	 147.jpg	 14	 12	 1	 u	 1	 1	 954.70	 0.69	 0.71	 
BMI_bfr_128	 0	 2	 02	 2	 62	 3.070101e+02	 155.jpg	 118.jpg	 22	 7	 1	 i	 1	 0	 662.85	 0.62	 0.79	 
BMI_bfr_128	 0	 2	 02	 2	 63	 3.120157e+02	 154.jpg	 127.jpg	 18	 19	 0	 u	 1	 0	 764.99	 0.67	 0.65	 
BMI_bfr_128	 0	 2	 02	 2	 64	 3.210091e+02	 143.jpg	 101.jpg	 15	 11	 0	 i	 1	 1	 693.20	 0.69	 0.73	 
BMI_bfr_128	 0	 2	 02	 2	 65	 3.240124e+02	 129.jpg	 158.jpg	 42	 41	 0	 u	 2	 0	 705.03	 0.39	 0.40	 
BMI_bfr_128	 0	 2	 02	 2	 66	 3.270158e+02	 118.jpg	 152.jpg	 7	 9	 0	 i	 1	 1	 660.55	 0.79	 0.76	 
BMI_bfr_128	 0	 2	 02	 2	 67	 3.330058e+02	 148.jpg	 139.jpg	 56	 24	 0	 i	 4	 1	 554.50	 0.18	 0.58	 
BMI_bfr_128	 0	 2	 02	 2	 68	 3.380114e+02	 141.jpg	 125.jpg	 47	 51	 0	 u	 2	 0	 892.89	 0.28	 0.22	 
BMI_bfr_128	 0	 2	 02	 2	 69	 3.420159e+02	 112.jpg	 146.jpg	 13	 17	 0	 u	 1	 0	 803.61	 0.70	 0.69	 
BMI_bfr_128	 0	 2	 02	 2	 70	 3.460204e+02	 135.jpg	 105.jpg	 46	 52	 1	 i	 2	 0	 781.84	 0.31	 0.20	 
BMI_bfr_128	 0	 2	 02	 2	 71	 3.500082e+02	 143.jpg	 152.jpg	 15	 9	 0	 i	 1	 1	 540.41	 0.69	 0.76	 
BMI_bfr_128	 0	 2	 02	 2	 72	 3.540127e+02	 155.jpg	 154.jpg	 22	 18	 1	 i	 1	 0	 631.13	 0.62	 0.67	 
BMI_bfr_128	 0	 2	 02	 2	 73	 3.580172e+02	 114.jpg	 157.jpg	 58	 26	 0	 i	 3	 1	 418.09	 0.13	 0.54	 
BMI_bfr_128	 0	 2	 02	 2	 74	 3.620050e+02	 113.jpg	 152.jpg	 21	 9	 0	 i	 1	 1	 975.45	 0.63	 0.76	 
BMI_bfr_128	 0	 2	 02	 2	 75	 3.660095e+02	 156.jpg	 153.jpg	 49	 39	 1	 i	 2	 0	 492.38	 0.25	 0.41	 
BMI_bfr_128	 0	 2	 02	 2	 76	 3.700139e+02	 141.jpg	 135.jpg	 47	 46	 0	 i	 2	 1	 515.59	 0.28	 0.31	 
BMI_bfr_128	 0	 2	 02	 2	 77	 3.740184e+02	 131.jpg	 153.jpg	 54	 39	 1	 i	 2	 0	 505.03	 0.19	 0.41	 
BMI_bfr_128	 0	 2	 02	 2	 78	 3.780062e+02	 120.jpg	 135.jpg	 44	 46	 0	 i	 2	 1	 724.92	 0.36	 0.31	 
BMI_bfr_128	 0	 2	 02	 2	 79	 3.820107e+02	 136.jpg	 123.jpg	 53	 43	 0	 i	 2	 1	 601.86	 0.19	 0.38	 
BMI_bfr_128	 0	 2	 02	 2	 80	 3.860152e+02	 127.jpg	 113.jpg	 19	 21	 1	 u	 1	 1	 602.56	 0.65	 0.63	 
