subjectID	 scanner	 order	 block	 run	 trial	 onsettime	 ImageLeft	 ImageRight	 bidIndexLeft	 bidIndexRight	 IsleftGo	 Response	 PairType	 Outcome	 RT	 bidLeft	 bidRight	 
BMI_bfr_108	 0	 2	 01	 1	 1	 2.032302e+00	 142.jpg	 150.jpg	 35	 26	 0	 u	 3	 0	 652.74	 0.49	 0.56	 
BMI_bfr_108	 0	 2	 01	 1	 2	 7.021230e+00	 115.jpg	 141.jpg	 48	 39	 1	 u	 2	 1	 636.55	 0.36	 0.40	 
BMI_bfr_108	 0	 2	 01	 1	 3	 1.503019e+01	 125.jpg	 137.jpg	 46	 53	 1	 u	 2	 1	 716.69	 0.38	 0.27	 
BMI_bfr_108	 0	 2	 01	 1	 4	 1.803357e+01	 158.jpg	 102.jpg	 15	 14	 0	 i	 1	 1	 874.76	 0.63	 0.64	 
BMI_bfr_108	 0	 2	 01	 1	 5	 2.502473e+01	 150.jpg	 140.jpg	 26	 58	 1	 u	 3	 1	 577.60	 0.56	 0.12	 
BMI_bfr_108	 0	 2	 01	 1	 6	 2.802809e+01	 143.jpg	 155.jpg	 40	 44	 1	 u	 2	 1	 791.92	 0.40	 0.39	 
BMI_bfr_108	 0	 2	 01	 1	 7	 3.902374e+01	 139.jpg	 101.jpg	 50	 51	 0	 i	 2	 1	 709.28	 0.34	 0.32	 
BMI_bfr_108	 0	 2	 01	 1	 8	 4.302822e+01	 101.jpg	 112.jpg	 51	 47	 1	 u	 2	 1	 732.49	 0.32	 0.37	 
BMI_bfr_108	 0	 2	 01	 1	 9	 4.703269e+01	 131.jpg	 145.jpg	 52	 54	 0	 i	 2	 1	 766.94	 0.28	 0.26	 
BMI_bfr_108	 0	 2	 01	 1	 10	 5.001937e+01	 139.jpg	 145.jpg	 50	 54	 0	 i	 2	 1	 772.89	 0.34	 0.26	 
BMI_bfr_108	 0	 2	 01	 1	 11	 5.302275e+01	 146.jpg	 153.jpg	 22	 12	 1	 u	 1	 1	 1324.68	 0.59	 0.65	 
BMI_bfr_108	 0	 2	 01	 1	 12	 5.802836e+01	 101.jpg	 141.jpg	 51	 39	 1	 u	 2	 1	 898.04	 0.32	 0.40	 
BMI_bfr_108	 0	 2	 01	 1	 13	 6.203283e+01	 108.jpg	 135.jpg	 9	 10	 1	 u	 1	 1	 549.95	 0.72	 0.66	 
BMI_bfr_108	 0	 2	 01	 1	 14	 7.102623e+01	 133.jpg	 140.jpg	 3	 58	 1	 i	 3	 0	 669.49	 0.80	 0.12	 
BMI_bfr_108	 0	 2	 01	 1	 15	 7.402959e+01	 155.jpg	 125.jpg	 44	 46	 0	 i	 2	 1	 816.26	 0.39	 0.38	 
BMI_bfr_108	 0	 2	 01	 1	 16	 7.901851e+01	 146.jpg	 158.jpg	 22	 15	 1	 u	 1	 1	 1013.85	 0.59	 0.63	 
BMI_bfr_108	 0	 2	 01	 1	 17	 8.502523e+01	 150.jpg	 104.jpg	 26	 55	 1	 i	 3	 0	 801.14	 0.56	 0.24	 
BMI_bfr_108	 0	 2	 01	 1	 18	 8.802859e+01	 102.jpg	 153.jpg	 14	 12	 1	 u	 1	 1	 689.16	 0.64	 0.65	 
BMI_bfr_108	 0	 2	 01	 1	 19	 9.303419e+01	 105.jpg	 109.jpg	 5	 57	 1	 u	 4	 1	 577.53	 0.75	 0.16	 
BMI_bfr_108	 0	 2	 01	 1	 20	 9.702200e+01	 136.jpg	 118.jpg	 20	 19	 0	 u	 1	 0	 819.91	 0.60	 0.60	 
BMI_bfr_108	 0	 2	 01	 1	 21	 1.020276e+02	 156.jpg	 157.jpg	 38	 6	 0	 u	 3	 0	 922.06	 0.42	 0.74	 
BMI_bfr_108	 0	 2	 01	 1	 22	 1.070332e+02	 153.jpg	 108.jpg	 12	 9	 0	 i	 1	 1	 832.96	 0.65	 0.72	 
BMI_bfr_108	 0	 2	 01	 1	 23	 1.100199e+02	 144.jpg	 152.jpg	 18	 17	 0	 i	 1	 1	 771.40	 0.62	 0.62	 
BMI_bfr_108	 0	 2	 01	 1	 24	 1.130232e+02	 126.jpg	 159.jpg	 25	 37	 1	 u	 4	 1	 873.16	 0.58	 0.43	 
BMI_bfr_108	 0	 2	 01	 1	 25	 1.250200e+02	 122.jpg	 139.jpg	 49	 50	 1	 u	 2	 1	 869.47	 0.35	 0.34	 
BMI_bfr_108	 0	 2	 01	 1	 26	 1.290245e+02	 148.jpg	 134.jpg	 21	 16	 0	 i	 1	 1	 926.40	 0.59	 0.62	 
BMI_bfr_108	 0	 2	 01	 1	 27	 1.320278e+02	 143.jpg	 131.jpg	 40	 52	 1	 u	 2	 1	 971.95	 0.40	 0.28	 
BMI_bfr_108	 0	 2	 01	 1	 28	 1.390190e+02	 110.jpg	 111.jpg	 7	 8	 0	 i	 1	 1	 854.85	 0.74	 0.73	 
BMI_bfr_108	 0	 2	 01	 1	 29	 1.420223e+02	 122.jpg	 132.jpg	 49	 42	 1	 u	 2	 1	 799.15	 0.35	 0.40	 
BMI_bfr_108	 0	 2	 01	 1	 30	 1.490302e+02	 154.jpg	 146.jpg	 13	 22	 0	 i	 1	 1	 856.62	 0.65	 0.59	 
BMI_bfr_108	 0	 2	 01	 1	 31	 1.540191e+02	 101.jpg	 132.jpg	 51	 42	 1	 u	 2	 1	 885.41	 0.32	 0.40	 
BMI_bfr_108	 0	 2	 01	 1	 32	 1.580236e+02	 143.jpg	 132.jpg	 40	 42	 1	 u	 2	 1	 897.38	 0.40	 0.40	 
BMI_bfr_108	 0	 2	 01	 1	 33	 1.630292e+02	 155.jpg	 115.jpg	 44	 48	 0	 i	 2	 1	 954.49	 0.39	 0.36	 
BMI_bfr_108	 0	 2	 01	 1	 34	 1.690192e+02	 104.jpg	 127.jpg	 55	 23	 0	 u	 3	 0	 1028.48	 0.24	 0.58	 
BMI_bfr_108	 0	 2	 01	 1	 35	 1.730237e+02	 122.jpg	 160.jpg	 49	 45	 1	 u	 2	 1	 579.17	 0.35	 0.39	 
BMI_bfr_108	 0	 2	 01	 1	 36	 1.760271e+02	 132.jpg	 125.jpg	 42	 46	 0	 i	 2	 1	 737.28	 0.40	 0.38	 
BMI_bfr_108	 0	 2	 01	 1	 37	 1.790304e+02	 101.jpg	 137.jpg	 51	 53	 1	 u	 2	 1	 647.74	 0.32	 0.27	 
BMI_bfr_108	 0	 2	 01	 1	 38	 1.820338e+02	 134.jpg	 110.jpg	 16	 7	 1	 u	 1	 1	 794.51	 0.62	 0.74	 
BMI_bfr_108	 0	 2	 01	 1	 39	 1.860216e+02	 135.jpg	 123.jpg	 10	 11	 0	 i	 1	 1	 969.43	 0.66	 0.66	 
BMI_bfr_108	 0	 2	 01	 1	 40	 1.900261e+02	 159.jpg	 105.jpg	 37	 5	 0	 u	 4	 0	 1161.40	 0.43	 0.75	 
BMI_bfr_108	 0	 2	 01	 1	 41	 1.960328e+02	 158.jpg	 108.jpg	 15	 9	 0	 i	 1	 1	 813.67	 0.63	 0.72	 
BMI_bfr_108	 0	 2	 01	 1	 42	 2.050262e+02	 109.jpg	 126.jpg	 57	 25	 0	 i	 4	 1	 1281.96	 0.16	 0.58	 
BMI_bfr_108	 0	 2	 01	 1	 43	 2.080295e+02	 142.jpg	 157.jpg	 35	 6	 0	 u	 3	 0	 1102.47	 0.49	 0.74	 
BMI_bfr_108	 0	 2	 01	 1	 44	 2.120340e+02	 123.jpg	 154.jpg	 11	 13	 1	 u	 1	 1	 686.93	 0.66	 0.65	 
BMI_bfr_108	 0	 2	 01	 1	 45	 2.170229e+02	 146.jpg	 135.jpg	 22	 10	 1	 i	 1	 0	 895.71	 0.59	 0.66	 
BMI_bfr_108	 0	 2	 01	 1	 46	 2.200263e+02	 139.jpg	 149.jpg	 50	 41	 0	 i	 2	 1	 930.07	 0.34	 0.40	 
BMI_bfr_108	 0	 2	 01	 1	 47	 2.240308e+02	 149.jpg	 137.jpg	 41	 53	 1	 u	 2	 1	 1234.46	 0.40	 0.27	 
BMI_bfr_108	 0	 2	 01	 1	 48	 2.340253e+02	 155.jpg	 122.jpg	 44	 49	 0	 i	 2	 1	 937.90	 0.39	 0.35	 
BMI_bfr_108	 0	 2	 01	 1	 49	 2.370286e+02	 148.jpg	 146.jpg	 21	 22	 0	 u	 1	 0	 1275.95	 0.59	 0.59	 
BMI_bfr_108	 0	 2	 01	 1	 50	 2.470232e+02	 123.jpg	 153.jpg	 11	 12	 1	 u	 1	 1	 1091.89	 0.66	 0.65	 
BMI_bfr_108	 0	 2	 01	 1	 51	 2.520288e+02	 111.jpg	 148.jpg	 8	 21	 1	 u	 1	 1	 586.50	 0.73	 0.59	 
BMI_bfr_108	 0	 2	 01	 1	 52	 2.570177e+02	 145.jpg	 155.jpg	 54	 44	 1	 u	 2	 1	 829.08	 0.26	 0.39	 
BMI_bfr_108	 0	 2	 01	 1	 53	 2.620233e+02	 149.jpg	 131.jpg	 41	 52	 1	 u	 2	 1	 987.45	 0.40	 0.28	 
BMI_bfr_108	 0	 2	 01	 1	 54	 2.650266e+02	 153.jpg	 152.jpg	 12	 17	 0	 i	 1	 1	 1032.97	 0.65	 0.62	 
BMI_bfr_108	 0	 2	 01	 1	 55	 2.690311e+02	 118.jpg	 110.jpg	 19	 7	 1	 u	 1	 1	 1359.92	 0.60	 0.74	 
BMI_bfr_108	 0	 2	 01	 1	 56	 2.770234e+02	 101.jpg	 131.jpg	 51	 52	 1	 u	 2	 1	 725.49	 0.32	 0.28	 
BMI_bfr_108	 0	 2	 01	 1	 57	 2.810279e+02	 144.jpg	 102.jpg	 18	 14	 0	 i	 1	 1	 951.30	 0.62	 0.64	 
BMI_bfr_108	 0	 2	 01	 1	 58	 2.840312e+02	 155.jpg	 113.jpg	 44	 43	 0	 i	 2	 1	 816.74	 0.39	 0.40	 
BMI_bfr_108	 0	 2	 01	 1	 59	 2.870179e+02	 102.jpg	 154.jpg	 14	 13	 1	 u	 1	 1	 631.50	 0.64	 0.65	 
BMI_bfr_108	 0	 2	 01	 1	 60	 3.000325e+02	 120.jpg	 114.jpg	 56	 24	 0	 i	 4	 1	 1297.52	 0.19	 0.58	 
BMI_bfr_108	 0	 2	 01	 1	 61	 3.030191e+02	 144.jpg	 111.jpg	 18	 8	 0	 i	 1	 1	 1056.01	 0.62	 0.73	 
BMI_bfr_108	 0	 2	 01	 1	 62	 3.070236e+02	 143.jpg	 137.jpg	 40	 53	 1	 u	 2	 1	 1157.91	 0.40	 0.27	 
BMI_bfr_108	 0	 2	 01	 1	 63	 3.120292e+02	 120.jpg	 105.jpg	 56	 5	 0	 u	 4	 0	 1158.80	 0.19	 0.75	 
BMI_bfr_108	 0	 2	 01	 1	 64	 3.210226e+02	 158.jpg	 118.jpg	 15	 19	 0	 u	 1	 0	 974.57	 0.63	 0.60	 
BMI_bfr_108	 0	 2	 01	 1	 65	 3.240260e+02	 136.jpg	 123.jpg	 20	 11	 0	 i	 1	 1	 1188.85	 0.60	 0.66	 
BMI_bfr_108	 0	 2	 01	 1	 66	 3.270293e+02	 158.jpg	 111.jpg	 15	 8	 0	 i	 1	 1	 1121.88	 0.63	 0.73	 
BMI_bfr_108	 0	 2	 01	 1	 67	 3.330194e+02	 154.jpg	 108.jpg	 13	 9	 0	 i	 1	 1	 903.37	 0.65	 0.72	 
BMI_bfr_108	 0	 2	 01	 1	 68	 3.380250e+02	 118.jpg	 135.jpg	 19	 10	 1	 u	 1	 1	 893.00	 0.60	 0.66	 
BMI_bfr_108	 0	 2	 01	 1	 69	 3.420294e+02	 138.jpg	 129.jpg	 36	 4	 0	 i	 4	 1	 1174.97	 0.45	 0.76	 
BMI_bfr_108	 0	 2	 01	 1	 70	 3.460339e+02	 129.jpg	 109.jpg	 4	 57	 1	 u	 4	 1	 624.40	 0.76	 0.16	 
BMI_bfr_108	 0	 2	 01	 1	 71	 3.500217e+02	 127.jpg	 142.jpg	 23	 35	 1	 u	 3	 1	 551.76	 0.58	 0.49	 
BMI_bfr_108	 0	 2	 01	 1	 72	 3.540262e+02	 135.jpg	 134.jpg	 10	 16	 0	 i	 1	 1	 1025.01	 0.66	 0.62	 
BMI_bfr_108	 0	 2	 01	 1	 73	 3.580307e+02	 141.jpg	 122.jpg	 39	 49	 0	 i	 2	 1	 800.67	 0.40	 0.35	 
BMI_bfr_108	 0	 2	 01	 1	 74	 3.620185e+02	 125.jpg	 141.jpg	 46	 39	 1	 i	 2	 0	 986.84	 0.38	 0.40	 
BMI_bfr_108	 0	 2	 01	 1	 75	 3.660229e+02	 131.jpg	 122.jpg	 52	 49	 0	 i	 2	 1	 740.03	 0.28	 0.35	 
BMI_bfr_108	 0	 2	 01	 1	 76	 3.700274e+02	 113.jpg	 131.jpg	 43	 52	 1	 u	 2	 1	 1044.51	 0.40	 0.28	 
BMI_bfr_108	 0	 2	 01	 1	 77	 3.740319e+02	 112.jpg	 122.jpg	 47	 49	 0	 i	 2	 1	 842.70	 0.37	 0.35	 
BMI_bfr_108	 0	 2	 01	 1	 78	 3.780197e+02	 160.jpg	 101.jpg	 45	 51	 0	 i	 2	 1	 905.05	 0.39	 0.32	 
BMI_bfr_108	 0	 2	 01	 1	 79	 3.820242e+02	 134.jpg	 158.jpg	 16	 15	 1	 u	 1	 1	 1164.53	 0.62	 0.63	 
BMI_bfr_108	 0	 2	 01	 1	 80	 3.860286e+02	 102.jpg	 110.jpg	 14	 7	 1	 u	 1	 1	 613.99	 0.64	 0.74	 
