subjectID	 scanner	 order	 block	 run	 trial	 onsettime	 ImageLeft	 ImageRight	 bidIndexLeft	 bidIndexRight	 IsleftGo	 Response	 PairType	 Outcome	 RT	 bidLeft	 bidRight	 
BMI_bfr_115	 0	 1	 01	 1	 1	 2.018327e+00	 114.jpg	 146.jpg	 47	 54	 1	 u	 2	 1	 723.39	 0.33	 0.22	 
BMI_bfr_115	 0	 1	 01	 1	 2	 5.021684e+00	 119.jpg	 137.jpg	 20	 11	 1	 i	 1	 0	 633.94	 0.60	 0.67	 
BMI_bfr_115	 0	 1	 01	 1	 3	 9.026171e+00	 151.jpg	 155.jpg	 14	 13	 0	 u	 1	 0	 758.35	 0.65	 0.66	 
BMI_bfr_115	 0	 1	 01	 1	 4	 1.503290e+01	 156.jpg	 146.jpg	 50	 54	 1	 i	 2	 0	 658.18	 0.30	 0.22	 
BMI_bfr_115	 0	 1	 01	 1	 5	 2.102295e+01	 142.jpg	 156.jpg	 43	 50	 0	 u	 2	 0	 1035.90	 0.39	 0.30	 
BMI_bfr_115	 0	 1	 01	 1	 6	 2.602857e+01	 142.jpg	 134.jpg	 43	 42	 0	 u	 2	 0	 1464.30	 0.39	 0.41	 
BMI_bfr_115	 0	 1	 01	 1	 7	 3.003305e+01	 138.jpg	 121.jpg	 12	 9	 1	 i	 1	 0	 936.25	 0.66	 0.71	 
BMI_bfr_115	 0	 1	 01	 1	 8	 3.502198e+01	 157.jpg	 138.jpg	 17	 12	 0	 i	 1	 1	 605.00	 0.61	 0.66	 
BMI_bfr_115	 0	 1	 01	 1	 9	 4.102871e+01	 121.jpg	 119.jpg	 9	 20	 0	 u	 1	 0	 583.56	 0.71	 0.60	 
BMI_bfr_115	 0	 1	 01	 1	 10	 4.403207e+01	 147.jpg	 154.jpg	 55	 26	 0	 i	 4	 1	 685.36	 0.22	 0.53	 
BMI_bfr_115	 0	 1	 01	 1	 11	 4.701876e+01	 141.jpg	 130.jpg	 7	 8	 1	 i	 1	 0	 466.29	 0.74	 0.73	 
BMI_bfr_115	 0	 1	 01	 1	 12	 5.102325e+01	 156.jpg	 103.jpg	 50	 41	 1	 i	 2	 0	 500.73	 0.30	 0.42	 
BMI_bfr_115	 0	 1	 01	 1	 13	 5.602885e+01	 153.jpg	 142.jpg	 45	 43	 1	 u	 2	 1	 771.60	 0.35	 0.39	 
BMI_bfr_115	 0	 1	 01	 1	 14	 5.903224e+01	 128.jpg	 103.jpg	 52	 41	 1	 i	 2	 0	 805.90	 0.27	 0.42	 
BMI_bfr_115	 0	 1	 01	 1	 15	 6.201889e+01	 123.jpg	 125.jpg	 22	 10	 0	 u	 1	 0	 586.86	 0.57	 0.70	 
BMI_bfr_115	 0	 1	 01	 1	 16	 6.602339e+01	 127.jpg	 132.jpg	 38	 6	 0	 u	 4	 0	 1150.07	 0.46	 0.75	 
BMI_bfr_115	 0	 1	 01	 1	 17	 8.002241e+01	 113.jpg	 122.jpg	 5	 36	 1	 u	 3	 1	 809.19	 0.76	 0.49	 
BMI_bfr_115	 0	 1	 01	 1	 18	 8.803137e+01	 121.jpg	 155.jpg	 9	 13	 0	 i	 1	 1	 563.01	 0.71	 0.66	 
BMI_bfr_115	 0	 1	 01	 1	 19	 9.402143e+01	 149.jpg	 113.jpg	 56	 5	 0	 u	 3	 0	 569.52	 0.21	 0.76	 
BMI_bfr_115	 0	 1	 01	 1	 20	 9.702480e+01	 126.jpg	 130.jpg	 18	 8	 1	 i	 1	 0	 581.32	 0.60	 0.73	 
BMI_bfr_115	 0	 1	 01	 1	 21	 1.010293e+02	 160.jpg	 101.jpg	 58	 3	 0	 u	 4	 0	 852.01	 0.18	 0.85	 
BMI_bfr_115	 0	 1	 01	 1	 22	 1.070193e+02	 146.jpg	 128.jpg	 54	 52	 0	 i	 2	 1	 746.03	 0.22	 0.27	 
BMI_bfr_115	 0	 1	 01	 1	 23	 1.100227e+02	 136.jpg	 156.jpg	 40	 50	 0	 u	 2	 0	 690.29	 0.44	 0.30	 
BMI_bfr_115	 0	 1	 01	 1	 24	 1.130261e+02	 108.jpg	 128.jpg	 48	 52	 0	 u	 2	 0	 690.79	 0.32	 0.27	 
BMI_bfr_115	 0	 1	 01	 1	 25	 1.160294e+02	 129.jpg	 121.jpg	 21	 9	 1	 i	 1	 0	 770.11	 0.59	 0.71	 
BMI_bfr_115	 0	 1	 01	 1	 26	 1.230206e+02	 120.jpg	 119.jpg	 19	 20	 0	 i	 1	 1	 664.27	 0.60	 0.60	 
BMI_bfr_115	 0	 1	 01	 1	 27	 1.260239e+02	 117.jpg	 145.jpg	 53	 49	 1	 i	 2	 0	 844.77	 0.27	 0.30	 
BMI_bfr_115	 0	 1	 01	 1	 28	 1.290273e+02	 130.jpg	 125.jpg	 8	 10	 0	 u	 1	 0	 609.02	 0.73	 0.70	 
BMI_bfr_115	 0	 1	 01	 1	 29	 1.340329e+02	 146.jpg	 153.jpg	 54	 45	 0	 i	 2	 1	 722.41	 0.22	 0.35	 
BMI_bfr_115	 0	 1	 01	 1	 30	 1.370196e+02	 120.jpg	 138.jpg	 19	 12	 0	 u	 1	 0	 570.87	 0.60	 0.66	 
BMI_bfr_115	 0	 1	 01	 1	 31	 1.410241e+02	 143.jpg	 105.jpg	 23	 35	 1	 u	 4	 1	 380.33	 0.57	 0.49	 
BMI_bfr_115	 0	 1	 01	 1	 32	 1.470308e+02	 155.jpg	 120.jpg	 13	 19	 1	 i	 1	 0	 786.39	 0.66	 0.60	 
BMI_bfr_115	 0	 1	 01	 1	 33	 1.500175e+02	 138.jpg	 130.jpg	 12	 8	 1	 i	 1	 0	 1028.62	 0.66	 0.73	 
BMI_bfr_115	 0	 1	 01	 1	 34	 1.570253e+02	 136.jpg	 117.jpg	 40	 53	 0	 i	 2	 1	 579.80	 0.44	 0.27	 
BMI_bfr_115	 0	 1	 01	 1	 35	 1.620309e+02	 129.jpg	 137.jpg	 21	 11	 1	 i	 1	 0	 490.64	 0.59	 0.67	 
BMI_bfr_115	 0	 1	 01	 1	 36	 1.660187e+02	 104.jpg	 122.jpg	 25	 36	 1	 i	 3	 0	 463.10	 0.54	 0.49	 
BMI_bfr_115	 0	 1	 01	 1	 37	 1.690221e+02	 113.jpg	 148.jpg	 5	 57	 1	 i	 3	 0	 846.13	 0.76	 0.21	 
BMI_bfr_115	 0	 1	 01	 1	 38	 1.720255e+02	 158.jpg	 156.jpg	 51	 50	 0	 u	 2	 0	 509.09	 0.28	 0.30	 
BMI_bfr_115	 0	 1	 01	 1	 39	 1.820200e+02	 107.jpg	 142.jpg	 44	 43	 1	 u	 2	 1	 741.32	 0.37	 0.39	 
BMI_bfr_115	 0	 1	 01	 1	 40	 1.930323e+02	 140.jpg	 142.jpg	 39	 43	 1	 u	 2	 1	 686.97	 0.45	 0.39	 
BMI_bfr_115	 0	 1	 01	 1	 41	 1.980213e+02	 136.jpg	 128.jpg	 40	 52	 0	 i	 2	 1	 974.59	 0.44	 0.27	 
BMI_bfr_115	 0	 1	 01	 1	 42	 2.070314e+02	 151.jpg	 119.jpg	 14	 20	 0	 i	 1	 1	 908.58	 0.65	 0.60	 
BMI_bfr_115	 0	 1	 01	 1	 43	 2.100180e+02	 158.jpg	 134.jpg	 51	 42	 0	 u	 2	 0	 768.32	 0.28	 0.41	 
BMI_bfr_115	 0	 1	 01	 1	 44	 2.150236e+02	 135.jpg	 157.jpg	 15	 17	 1	 i	 1	 0	 611.67	 0.64	 0.61	 
BMI_bfr_115	 0	 1	 01	 1	 45	 2.180270e+02	 129.jpg	 151.jpg	 21	 14	 1	 i	 1	 0	 1354.73	 0.59	 0.65	 
BMI_bfr_115	 0	 1	 01	 1	 46	 2.270204e+02	 107.jpg	 136.jpg	 44	 40	 1	 u	 2	 1	 562.97	 0.37	 0.44	 
BMI_bfr_115	 0	 1	 01	 1	 47	 2.370316e+02	 111.jpg	 114.jpg	 46	 47	 0	 i	 2	 1	 755.96	 0.35	 0.33	 
BMI_bfr_115	 0	 1	 01	 1	 48	 2.400183e+02	 145.jpg	 107.jpg	 49	 44	 0	 i	 2	 1	 536.94	 0.30	 0.37	 
BMI_bfr_115	 0	 1	 01	 1	 49	 2.470261e+02	 157.jpg	 119.jpg	 17	 20	 0	 i	 1	 1	 841.92	 0.61	 0.60	 
BMI_bfr_115	 0	 1	 01	 1	 50	 2.500295e+02	 129.jpg	 130.jpg	 21	 8	 1	 i	 1	 0	 516.18	 0.59	 0.73	 
BMI_bfr_115	 0	 1	 01	 1	 51	 2.530329e+02	 135.jpg	 121.jpg	 15	 9	 1	 i	 1	 0	 786.70	 0.64	 0.71	 
BMI_bfr_115	 0	 1	 01	 1	 52	 2.560195e+02	 101.jpg	 105.jpg	 3	 35	 1	 i	 4	 0	 950.17	 0.85	 0.49	 
BMI_bfr_115	 0	 1	 01	 1	 53	 2.590229e+02	 126.jpg	 137.jpg	 18	 11	 1	 u	 1	 1	 1040.70	 0.60	 0.67	 
BMI_bfr_115	 0	 1	 01	 1	 54	 2.630274e+02	 155.jpg	 157.jpg	 13	 17	 1	 u	 1	 1	 1041.46	 0.66	 0.61	 
BMI_bfr_115	 0	 1	 01	 1	 55	 2.660307e+02	 127.jpg	 101.jpg	 38	 3	 0	 u	 4	 0	 1030.69	 0.46	 0.85	 
BMI_bfr_115	 0	 1	 01	 1	 56	 2.730219e+02	 129.jpg	 123.jpg	 21	 22	 1	 i	 1	 0	 553.55	 0.59	 0.57	 
BMI_bfr_115	 0	 1	 01	 1	 57	 2.810309e+02	 136.jpg	 114.jpg	 40	 47	 0	 i	 2	 1	 498.76	 0.44	 0.33	 
BMI_bfr_115	 0	 1	 01	 1	 58	 2.880220e+02	 124.jpg	 149.jpg	 4	 56	 1	 i	 3	 0	 707.89	 0.81	 0.21	 
BMI_bfr_115	 0	 1	 01	 1	 59	 2.970321e+02	 153.jpg	 136.jpg	 45	 40	 1	 u	 2	 1	 1002.01	 0.35	 0.44	 
BMI_bfr_115	 0	 1	 01	 1	 60	 3.060255e+02	 156.jpg	 145.jpg	 50	 49	 1	 i	 2	 0	 1099.01	 0.30	 0.30	 
BMI_bfr_115	 0	 1	 01	 1	 61	 3.110311e+02	 108.jpg	 107.jpg	 48	 44	 0	 u	 2	 0	 976.11	 0.32	 0.37	 
BMI_bfr_115	 0	 1	 01	 1	 62	 3.140178e+02	 110.jpg	 141.jpg	 16	 7	 0	 u	 1	 0	 599.57	 0.62	 0.74	 
BMI_bfr_115	 0	 1	 01	 1	 63	 3.170212e+02	 160.jpg	 132.jpg	 58	 6	 0	 i	 4	 1	 341.33	 0.18	 0.75	 
BMI_bfr_115	 0	 1	 01	 1	 64	 3.200245e+02	 158.jpg	 128.jpg	 51	 52	 0	 u	 2	 0	 836.86	 0.28	 0.27	 
BMI_bfr_115	 0	 1	 01	 1	 65	 3.240290e+02	 111.jpg	 134.jpg	 46	 42	 0	 u	 2	 0	 770.06	 0.35	 0.41	 
BMI_bfr_115	 0	 1	 01	 1	 66	 3.310202e+02	 134.jpg	 136.jpg	 42	 40	 1	 u	 2	 1	 596.72	 0.41	 0.44	 
BMI_bfr_115	 0	 1	 01	 1	 67	 3.340235e+02	 153.jpg	 145.jpg	 45	 49	 1	 u	 2	 1	 496.00	 0.35	 0.30	 
BMI_bfr_115	 0	 1	 01	 1	 68	 3.380280e+02	 112.jpg	 122.jpg	 24	 36	 1	 u	 3	 1	 1014.22	 0.55	 0.49	 
BMI_bfr_115	 0	 1	 01	 1	 69	 3.420325e+02	 157.jpg	 129.jpg	 17	 21	 0	 u	 1	 0	 553.64	 0.61	 0.59	 
BMI_bfr_115	 0	 1	 01	 1	 70	 3.460203e+02	 145.jpg	 128.jpg	 49	 52	 0	 i	 2	 1	 841.04	 0.30	 0.27	 
BMI_bfr_115	 0	 1	 01	 1	 71	 3.500248e+02	 137.jpg	 155.jpg	 11	 13	 0	 i	 1	 1	 875.48	 0.67	 0.66	 
BMI_bfr_115	 0	 1	 01	 1	 72	 3.540293e+02	 125.jpg	 110.jpg	 10	 16	 1	 i	 1	 0	 1236.20	 0.70	 0.62	 
BMI_bfr_115	 0	 1	 01	 1	 73	 3.580171e+02	 112.jpg	 148.jpg	 24	 57	 1	 u	 3	 1	 803.56	 0.55	 0.21	 
BMI_bfr_115	 0	 1	 01	 1	 74	 3.620215e+02	 145.jpg	 114.jpg	 49	 47	 0	 i	 2	 1	 961.78	 0.30	 0.33	 
BMI_bfr_115	 0	 1	 01	 1	 75	 3.660260e+02	 151.jpg	 126.jpg	 14	 18	 0	 i	 1	 1	 804.99	 0.65	 0.60	 
BMI_bfr_115	 0	 1	 01	 1	 76	 3.700305e+02	 127.jpg	 154.jpg	 38	 26	 0	 u	 4	 0	 794.42	 0.46	 0.53	 
BMI_bfr_115	 0	 1	 01	 1	 77	 3.740183e+02	 141.jpg	 121.jpg	 7	 9	 1	 i	 1	 0	 586.79	 0.74	 0.71	 
BMI_bfr_115	 0	 1	 01	 1	 78	 3.780228e+02	 145.jpg	 140.jpg	 49	 39	 0	 u	 2	 0	 666.29	 0.30	 0.45	 
BMI_bfr_115	 0	 1	 01	 1	 79	 3.820273e+02	 124.jpg	 122.jpg	 4	 36	 1	 i	 3	 0	 453.19	 0.81	 0.49	 
BMI_bfr_115	 0	 1	 01	 1	 80	 3.860318e+02	 135.jpg	 130.jpg	 15	 8	 1	 i	 1	 0	 802.67	 0.64	 0.73	 
