subjectID	 scanner	 order	 block	 run	 trial	 onsettime	 ImageLeft	 ImageRight	 bidIndexLeft	 bidIndexRight	 IsleftGo	 Response	 PairType	 Outcome	 RT	 bidLeft	 bidRight	 
p_109	 0	 1	 02	 2	 1	 2.015892e+00	 8001.jpg	 8033.jpg	 26	 38	 1	 x	 4	 999	 999000.00	 0.53	 0.42	 
p_109	 0	 1	 02	 2	 2	 5.007098e+00	 2155.jpg	 7480.jpg	 10	 8	 1	 i	 1	 0	 608.27	 0.75	 0.76	 
p_109	 0	 1	 02	 2	 3	 1.201774e+01	 4603.jpg	 5199.jpg	 53	 41	 1	 i	 2	 0	 925.59	 0.25	 0.39	 
p_109	 0	 1	 02	 2	 4	 1.601046e+01	 8510.jpg	 8371.jpg	 42	 49	 1	 u	 2	 1	 804.85	 0.38	 0.29	 
p_109	 0	 1	 02	 2	 5	 2.101806e+01	 8280.jpg	 8340.jpg	 52	 54	 1	 u	 2	 1	 709.20	 0.25	 0.24	 
p_109	 0	 1	 02	 2	 6	 2.501079e+01	 7291.jpg	 8371.jpg	 47	 49	 1	 i	 2	 0	 812.46	 0.34	 0.29	 
p_109	 0	 1	 02	 2	 7	 2.901687e+01	 7430.jpg	 2155.jpg	 9	 10	 0	 i	 1	 1	 598.33	 0.75	 0.75	 
p_109	 0	 1	 02	 2	 8	 3.200808e+01	 8371.jpg	 8280.jpg	 49	 52	 0	 i	 2	 1	 647.10	 0.29	 0.25	 
p_109	 0	 1	 02	 2	 9	 3.501264e+01	 8208.jpg	 2030.jpg	 50	 51	 1	 i	 2	 0	 1226.52	 0.29	 0.28	 
p_109	 0	 1	 02	 2	 10	 4.000688e+01	 2362.jpg	 4640.jpg	 16	 13	 0	 i	 1	 1	 616.26	 0.66	 0.72	 
p_109	 0	 1	 02	 2	 11	 4.401296e+01	 8340.jpg	 8510.jpg	 54	 42	 0	 i	 2	 1	 722.15	 0.24	 0.38	 
p_109	 0	 1	 02	 2	 12	 4.900721e+01	 8496.jpg	 7250.jpg	 23	 35	 1	 i	 4	 0	 623.85	 0.55	 0.44	 
p_109	 0	 1	 02	 2	 13	 5.301329e+01	 2155.jpg	 2550.jpg	 10	 22	 1	 i	 1	 0	 985.75	 0.75	 0.56	 
p_109	 0	 1	 02	 2	 14	 5.601785e+01	 4603.jpg	 4599.jpg	 53	 46	 1	 i	 2	 0	 1101.18	 0.25	 0.36	 
p_109	 0	 1	 02	 2	 15	 6.001058e+01	 8280.jpg	 5199.jpg	 52	 41	 1	 u	 2	 1	 564.42	 0.25	 0.39	 
p_109	 0	 1	 02	 2	 16	 6.600634e+01	 8470.jpg	 2158.jpg	 37	 25	 0	 u	 3	 0	 760.62	 0.42	 0.53	 
p_109	 0	 1	 02	 2	 17	 7.301698e+01	 8350.jpg	 8470.jpg	 24	 37	 1	 i	 3	 0	 901.91	 0.54	 0.42	 
p_109	 0	 1	 02	 2	 18	 7.600819e+01	 8502.jpg	 4610.jpg	 18	 14	 1	 i	 1	 0	 822.70	 0.59	 0.69	 
p_109	 0	 1	 02	 2	 19	 8.101579e+01	 8208.jpg	 4601.jpg	 50	 48	 1	 i	 2	 0	 791.08	 0.29	 0.33	 
p_109	 0	 1	 02	 2	 20	 8.601004e+01	 4610.jpg	 2303.jpg	 14	 12	 0	 i	 1	 1	 948.79	 0.69	 0.73	 
p_109	 0	 1	 02	 2	 21	 9.201916e+01	 2209.jpg	 8420.jpg	 19	 7	 0	 i	 1	 1	 987.63	 0.58	 0.76	 
p_109	 0	 1	 02	 2	 22	 9.601188e+01	 7480.jpg	 2303.jpg	 8	 12	 0	 i	 1	 1	 914.87	 0.76	 0.73	 
p_109	 0	 1	 02	 2	 23	 1.010195e+02	 2030.jpg	 8510.jpg	 51	 42	 0	 u	 2	 0	 1059.25	 0.28	 0.38	 
p_109	 0	 1	 02	 2	 24	 1.080168e+02	 8371.jpg	 2091.jpg	 49	 39	 0	 i	 2	 1	 781.92	 0.29	 0.40	 
p_109	 0	 1	 02	 2	 25	 1.130110e+02	 5626.jpg	 8340.jpg	 44	 54	 1	 u	 2	 1	 1067.63	 0.37	 0.24	 
p_109	 0	 1	 02	 2	 26	 1.180186e+02	 8420.jpg	 2346.jpg	 7	 17	 1	 u	 1	 1	 700.01	 0.76	 0.64	 
p_109	 0	 1	 02	 2	 27	 1.210098e+02	 4599.jpg	 7291.jpg	 46	 47	 0	 u	 2	 0	 668.76	 0.36	 0.34	 
p_109	 0	 1	 02	 2	 28	 1.240144e+02	 4599.jpg	 8208.jpg	 46	 50	 0	 u	 2	 0	 1280.18	 0.36	 0.29	 
p_109	 0	 1	 02	 2	 29	 1.300102e+02	 2346.jpg	 7660.jpg	 17	 15	 0	 i	 1	 1	 772.40	 0.64	 0.66	 
p_109	 0	 1	 02	 2	 30	 1.340162e+02	 2362.jpg	 8420.jpg	 16	 7	 0	 i	 1	 1	 718.29	 0.66	 0.76	 
p_109	 0	 1	 02	 2	 31	 1.430166e+02	 4599.jpg	 8510.jpg	 46	 42	 0	 i	 2	 1	 965.88	 0.36	 0.38	 
p_109	 0	 1	 02	 2	 32	 1.480108e+02	 5199.jpg	 8208.jpg	 41	 50	 0	 u	 2	 0	 771.62	 0.39	 0.29	 
p_109	 0	 1	 02	 2	 33	 1.570111e+02	 4610.jpg	 8420.jpg	 14	 7	 0	 i	 1	 1	 987.21	 0.69	 0.76	 
p_109	 0	 1	 02	 2	 34	 1.600157e+02	 2030.jpg	 2091.jpg	 51	 39	 0	 i	 2	 1	 894.63	 0.28	 0.40	 
p_109	 0	 1	 02	 2	 35	 1.640084e+02	 2550.jpg	 2373.jpg	 22	 20	 0	 i	 1	 1	 789.89	 0.56	 0.57	 
p_109	 0	 1	 02	 2	 36	 1.700175e+02	 2303.jpg	 7430.jpg	 12	 9	 1	 i	 1	 0	 716.72	 0.73	 0.75	 
p_109	 0	 1	 02	 2	 37	 1.740103e+02	 2347.jpg	 2155.jpg	 11	 10	 0	 i	 1	 1	 899.97	 0.74	 0.75	 
p_109	 0	 1	 02	 2	 38	 1.810076e+02	 2155.jpg	 2209.jpg	 10	 19	 1	 u	 1	 1	 798.66	 0.75	 0.58	 
p_109	 0	 1	 02	 2	 39	 1.870167e+02	 1590.jpg	 8371.jpg	 45	 49	 1	 i	 2	 0	 837.48	 0.36	 0.29	 
p_109	 0	 1	 02	 2	 40	 1.980067e+02	 5199.jpg	 8510.jpg	 41	 42	 0	 i	 2	 1	 1095.41	 0.39	 0.38	 
p_109	 0	 1	 02	 2	 41	 2.030143e+02	 8208.jpg	 8371.jpg	 50	 49	 1	 u	 2	 1	 1239.77	 0.29	 0.29	 
p_109	 0	 1	 02	 2	 42	 2.090101e+02	 8208.jpg	 1721.jpg	 50	 43	 1	 i	 2	 0	 939.96	 0.29	 0.37	 
p_109	 0	 1	 02	 2	 43	 2.200134e+02	 2347.jpg	 1660.jpg	 11	 21	 0	 i	 1	 1	 784.53	 0.74	 0.57	 
p_109	 0	 1	 02	 2	 44	 2.230180e+02	 7291.jpg	 2030.jpg	 47	 51	 1	 i	 2	 0	 691.92	 0.34	 0.28	 
p_109	 0	 1	 02	 2	 45	 2.270107e+02	 5626.jpg	 4599.jpg	 44	 46	 1	 i	 2	 0	 1067.17	 0.37	 0.36	 
p_109	 0	 1	 02	 2	 46	 2.380141e+02	 5199.jpg	 2091.jpg	 41	 39	 0	 i	 2	 1	 623.73	 0.39	 0.40	 
p_109	 0	 1	 02	 2	 47	 2.420068e+02	 4601.jpg	 4603.jpg	 48	 53	 0	 i	 2	 1	 663.00	 0.33	 0.25	 
p_109	 0	 1	 02	 2	 48	 2.450114e+02	 2550.jpg	 7660.jpg	 22	 15	 0	 u	 1	 0	 538.40	 0.56	 0.66	 
p_109	 0	 1	 02	 2	 49	 2.560147e+02	 4599.jpg	 1590.jpg	 46	 45	 0	 u	 2	 0	 1214.96	 0.36	 0.36	 
p_109	 0	 1	 02	 2	 50	 2.610090e+02	 8502.jpg	 7430.jpg	 18	 9	 1	 i	 1	 0	 652.70	 0.59	 0.75	 
p_109	 0	 1	 02	 2	 51	 2.680063e+02	 1660.jpg	 2209.jpg	 21	 19	 1	 i	 1	 0	 1143.32	 0.57	 0.58	 
p_109	 0	 1	 02	 2	 52	 2.720123e+02	 2303.jpg	 2550.jpg	 12	 22	 1	 i	 1	 0	 593.24	 0.73	 0.56	 
p_109	 0	 1	 02	 2	 53	 2.760184e+02	 4610.jpg	 1660.jpg	 14	 21	 0	 u	 1	 0	 795.13	 0.69	 0.57	 
p_109	 0	 1	 02	 2	 54	 2.790096e+02	 1590.jpg	 1721.jpg	 45	 43	 1	 i	 2	 0	 635.92	 0.36	 0.37	 
p_109	 0	 1	 02	 2	 55	 2.850187e+02	 7291.jpg	 1721.jpg	 47	 43	 1	 i	 2	 0	 530.76	 0.34	 0.37	 
p_109	 0	 1	 02	 2	 56	 2.890115e+02	 4601.jpg	 5626.jpg	 48	 44	 0	 u	 2	 0	 954.00	 0.33	 0.37	 
p_109	 0	 1	 02	 2	 57	 2.920160e+02	 2346.jpg	 2373.jpg	 17	 20	 0	 x	 1	 999	 999000.00	 0.64	 0.57	 
p_109	 0	 1	 02	 2	 58	 2.990133e+02	 8510.jpg	 1721.jpg	 42	 43	 1	 i	 2	 0	 664.08	 0.38	 0.37	 
p_109	 0	 1	 02	 2	 59	 3.030194e+02	 5626.jpg	 1721.jpg	 44	 43	 1	 i	 2	 0	 497.99	 0.37	 0.37	 
p_109	 0	 1	 02	 2	 60	 3.060106e+02	 8420.jpg	 7430.jpg	 7	 9	 1	 i	 1	 0	 562.75	 0.76	 0.75	 
p_109	 0	 1	 02	 2	 61	 3.100167e+02	 2550.jpg	 8502.jpg	 22	 18	 0	 u	 1	 0	 556.66	 0.56	 0.59	 
p_109	 0	 1	 02	 2	 62	 3.130079e+02	 7480.jpg	 8502.jpg	 8	 18	 0	 u	 1	 0	 557.41	 0.76	 0.59	 
p_109	 0	 1	 02	 2	 63	 3.170140e+02	 7430.jpg	 4640.jpg	 9	 13	 0	 u	 1	 0	 647.30	 0.75	 0.72	 
p_109	 0	 1	 02	 2	 64	 3.220082e+02	 2347.jpg	 4640.jpg	 11	 13	 0	 u	 1	 0	 709.02	 0.74	 0.72	 
p_109	 0	 1	 02	 2	 65	 3.250128e+02	 8420.jpg	 7480.jpg	 7	 8	 1	 u	 1	 1	 888.46	 0.76	 0.76	 
p_109	 0	 1	 02	 2	 66	 3.300070e+02	 2346.jpg	 2155.jpg	 17	 10	 0	 i	 1	 1	 566.17	 0.64	 0.75	 
p_109	 0	 1	 02	 2	 67	 3.340131e+02	 2373.jpg	 2362.jpg	 20	 16	 1	 u	 1	 1	 544.08	 0.57	 0.66	 
p_109	 0	 1	 02	 2	 68	 3.380192e+02	 1660.jpg	 2362.jpg	 21	 16	 1	 i	 1	 0	 1033.97	 0.57	 0.66	 
