subjectID	 scanner	 order	 block	 run	 trial	 onsettime	 ImageLeft	 ImageRight	 bidIndexLeft	 bidIndexRight	 IsleftGo	 Response	 PairType	 Outcome	 RT	 bidLeft	 bidRight	 
100	 0	 2	 01	 2	 1	 2.015876e+00	 2373.jpg	 2352.1.jpg	 51	 42	 1	 i	 2	 0	 908.44	 0.26	 0.36	 
100	 0	 2	 01	 2	 2	 5.007072e+00	 8470.jpg	 8280.jpg	 47	 48	 0	 u	 2	 0	 989.21	 0.32	 0.31	 
100	 0	 2	 01	 2	 3	 1.201769e+01	 1721.jpg	 7480.jpg	 52	 54	 0	 u	 2	 0	 810.50	 0.25	 0.22	 
100	 0	 2	 01	 2	 4	 1.601040e+01	 4603.jpg	 8001.jpg	 23	 38	 1	 u	 3	 1	 1169.76	 0.63	 0.40	 
100	 0	 2	 01	 2	 5	 2.101799e+01	 8280.jpg	 1590.jpg	 48	 39	 1	 i	 2	 0	 722.11	 0.31	 0.38	 
100	 0	 2	 01	 2	 6	 2.501070e+01	 2362.jpg	 8510.jpg	 7	 11	 0	 u	 1	 0	 761.38	 0.78	 0.74	 
100	 0	 2	 01	 2	 7	 2.901677e+01	 1590.jpg	 5199.jpg	 39	 46	 0	 u	 2	 0	 675.25	 0.38	 0.32	 
100	 0	 2	 01	 2	 8	 3.200796e+01	 4610.jpg	 7260.jpg	 15	 8	 0	 u	 1	 0	 788.03	 0.70	 0.76	 
100	 0	 2	 01	 2	 9	 3.501251e+01	 2030.jpg	 8371.jpg	 12	 9	 0	 u	 1	 0	 727.45	 0.73	 0.74	 
100	 0	 2	 01	 2	 10	 4.000674e+01	 5829.jpg	 2550.jpg	 20	 17	 0	 u	 1	 0	 709.17	 0.65	 0.67	 
100	 0	 2	 01	 2	 11	 4.401281e+01	 4640.jpg	 2347.jpg	 16	 10	 1	 u	 1	 1	 575.06	 0.67	 0.74	 
100	 0	 2	 01	 2	 12	 4.900704e+01	 7660.jpg	 2373.jpg	 50	 51	 0	 u	 2	 0	 668.79	 0.28	 0.26	 
100	 0	 2	 01	 2	 13	 5.301311e+01	 5829.jpg	 8371.jpg	 20	 9	 0	 u	 1	 0	 566.69	 0.65	 0.74	 
100	 0	 2	 01	 2	 14	 5.601765e+01	 2373.jpg	 8470.jpg	 51	 47	 1	 u	 2	 1	 1082.09	 0.26	 0.32	 
100	 0	 2	 01	 2	 15	 6.001037e+01	 2352.1.jpg	 8502.jpg	 42	 41	 0	 i	 2	 1	 1009.34	 0.36	 0.37	 
100	 0	 2	 01	 2	 16	 6.600611e+01	 5199.jpg	 7660.jpg	 46	 50	 1	 i	 2	 0	 1221.56	 0.32	 0.28	 
100	 0	 2	 01	 2	 17	 7.301673e+01	 8502.jpg	 1540.jpg	 41	 53	 1	 u	 2	 1	 738.85	 0.37	 0.24	 
100	 0	 2	 01	 2	 18	 7.600793e+01	 1540.jpg	 5199.jpg	 53	 46	 0	 i	 2	 1	 1075.62	 0.24	 0.32	 
100	 0	 2	 01	 2	 19	 8.101551e+01	 4610.jpg	 8510.jpg	 15	 11	 0	 u	 1	 0	 804.00	 0.70	 0.74	 
100	 0	 2	 01	 2	 20	 8.600974e+01	 8420.jpg	 2091.jpg	 14	 21	 1	 i	 1	 0	 833.73	 0.71	 0.64	 
100	 0	 2	 01	 2	 21	 9.201884e+01	 7499.jpg	 1720.jpg	 24	 37	 1	 u	 4	 1	 952.55	 0.61	 0.41	 
100	 0	 2	 01	 2	 22	 9.601155e+01	 5480.jpg	 2352.1.jpg	 40	 42	 1	 u	 2	 1	 847.81	 0.37	 0.36	 
100	 0	 2	 01	 2	 23	 1.010059e+02	 8510.jpg	 8496.jpg	 11	 13	 1	 i	 1	 0	 861.46	 0.74	 0.73	 
100	 0	 2	 01	 2	 24	 1.080164e+02	 2058.jpg	 4610.jpg	 19	 15	 1	 u	 1	 1	 938.82	 0.66	 0.70	 
100	 0	 2	 01	 2	 25	 1.130106e+02	 2352.1.jpg	 5199.jpg	 42	 46	 0	 i	 2	 1	 856.55	 0.36	 0.32	 
100	 0	 2	 01	 2	 26	 1.180182e+02	 4640.jpg	 2030.jpg	 16	 12	 1	 i	 1	 0	 776.92	 0.67	 0.73	 
100	 0	 2	 01	 2	 27	 1.210094e+02	 8502.jpg	 1721.jpg	 41	 52	 1	 u	 2	 1	 1001.70	 0.37	 0.25	 
100	 0	 2	 01	 2	 28	 1.240140e+02	 4640.jpg	 2362.jpg	 16	 7	 1	 i	 1	 0	 1021.11	 0.67	 0.78	 
100	 0	 2	 01	 2	 29	 1.300097e+02	 8496.jpg	 8420.jpg	 13	 14	 0	 u	 1	 0	 705.31	 0.73	 0.71	 
100	 0	 2	 01	 2	 30	 1.340158e+02	 8280.jpg	 2209.jpg	 48	 44	 1	 i	 2	 0	 747.22	 0.31	 0.33	 
100	 0	 2	 01	 2	 31	 1.430161e+02	 2030.jpg	 8510.jpg	 12	 11	 0	 u	 1	 0	 866.81	 0.73	 0.74	 
100	 0	 2	 01	 2	 32	 1.480103e+02	 2158.jpg	 2030.jpg	 22	 12	 1	 i	 1	 0	 1040.54	 0.64	 0.73	 
100	 0	 2	 01	 2	 33	 1.570106e+02	 1590.jpg	 8502.jpg	 39	 41	 0	 u	 2	 0	 1032.14	 0.38	 0.37	 
100	 0	 2	 01	 2	 34	 1.600151e+02	 4640.jpg	 8210.jpg	 16	 18	 1	 u	 1	 1	 1131.56	 0.67	 0.67	 
100	 0	 2	 01	 2	 35	 1.640079e+02	 8350.jpg	 1721.jpg	 43	 52	 1	 u	 2	 1	 1250.80	 0.34	 0.25	 
100	 0	 2	 01	 2	 36	 1.700170e+02	 2165.jpg	 4603.jpg	 35	 23	 0	 u	 3	 0	 841.67	 0.43	 0.63	 
100	 0	 2	 01	 2	 37	 1.740097e+02	 1540.jpg	 8350.jpg	 53	 43	 0	 i	 2	 1	 960.91	 0.24	 0.34	 
100	 0	 2	 01	 2	 38	 1.810069e+02	 8496.jpg	 7260.jpg	 13	 8	 0	 u	 1	 0	 1067.56	 0.73	 0.76	 
100	 0	 2	 01	 2	 39	 1.870160e+02	 1540.jpg	 7480.jpg	 53	 54	 0	 i	 2	 1	 898.40	 0.24	 0.22	 
100	 0	 2	 01	 2	 40	 1.980060e+02	 7660.jpg	 5480.jpg	 50	 40	 0	 i	 2	 1	 1204.33	 0.28	 0.37	 
100	 0	 2	 01	 2	 41	 2.030136e+02	 2058.jpg	 5829.jpg	 19	 20	 1	 i	 1	 0	 820.68	 0.66	 0.65	 
100	 0	 2	 01	 2	 42	 2.090093e+02	 5199.jpg	 2209.jpg	 46	 44	 1	 i	 2	 0	 1272.88	 0.32	 0.33	 
100	 0	 2	 01	 2	 43	 2.200127e+02	 7480.jpg	 7660.jpg	 54	 50	 1	 u	 2	 1	 1133.46	 0.22	 0.28	 
100	 0	 2	 01	 2	 44	 2.230172e+02	 5199.jpg	 8220.jpg	 46	 45	 1	 u	 2	 1	 1456.85	 0.32	 0.33	 
100	 0	 2	 01	 2	 45	 2.270099e+02	 8210.jpg	 2058.jpg	 18	 19	 0	 i	 1	 1	 1192.12	 0.67	 0.66	 
100	 0	 2	 01	 2	 46	 2.380133e+02	 1540.jpg	 5480.jpg	 53	 40	 0	 i	 2	 1	 908.67	 0.24	 0.37	 
100	 0	 2	 01	 2	 47	 2.420060e+02	 4610.jpg	 8371.jpg	 15	 9	 0	 u	 1	 0	 979.90	 0.70	 0.74	 
100	 0	 2	 01	 2	 48	 2.450105e+02	 2091.jpg	 2058.jpg	 21	 19	 0	 u	 1	 0	 1239.33	 0.64	 0.66	 
100	 0	 2	 01	 2	 49	 2.560139e+02	 2155.jpg	 7282.jpg	 25	 36	 1	 u	 4	 1	 1371.89	 0.59	 0.42	 
100	 0	 2	 01	 2	 50	 2.610081e+02	 2158.jpg	 5829.jpg	 22	 20	 1	 i	 1	 0	 1305.61	 0.64	 0.65	 
100	 0	 2	 01	 2	 51	 2.680187e+02	 8280.jpg	 2352.1.jpg	 48	 42	 1	 i	 2	 0	 1414.92	 0.31	 0.36	 
100	 0	 2	 01	 2	 52	 2.720114e+02	 2030.jpg	 2058.jpg	 12	 19	 0	 u	 1	 0	 1214.18	 0.73	 0.66	 
100	 0	 2	 01	 2	 53	 2.760175e+02	 7260.jpg	 2347.jpg	 8	 10	 1	 i	 1	 0	 808.06	 0.76	 0.74	 
100	 0	 2	 01	 2	 54	 2.790087e+02	 1721.jpg	 5199.jpg	 52	 46	 0	 u	 2	 0	 1080.83	 0.25	 0.32	 
100	 0	 2	 01	 2	 55	 2.850178e+02	 4610.jpg	 4640.jpg	 15	 16	 0	 u	 1	 0	 1119.67	 0.70	 0.67	 
100	 0	 2	 01	 2	 56	 2.890105e+02	 8496.jpg	 8371.jpg	 13	 9	 0	 u	 1	 0	 1126.92	 0.73	 0.74	 
100	 0	 2	 01	 2	 57	 2.920150e+02	 2550.jpg	 8496.jpg	 17	 13	 1	 u	 1	 1	 1274.33	 0.67	 0.73	 
100	 0	 2	 01	 2	 58	 2.990123e+02	 8371.jpg	 8210.jpg	 9	 18	 1	 u	 1	 1	 1173.00	 0.74	 0.67	 
100	 0	 2	 01	 2	 59	 3.030184e+02	 5480.jpg	 2209.jpg	 40	 44	 1	 u	 2	 1	 1150.90	 0.37	 0.33	 
100	 0	 2	 01	 2	 60	 3.060096e+02	 8280.jpg	 1540.jpg	 48	 53	 1	 u	 2	 1	 1263.68	 0.31	 0.24	 
100	 0	 2	 01	 2	 61	 3.100156e+02	 8350.jpg	 2352.1.jpg	 43	 42	 1	 u	 2	 1	 1161.56	 0.34	 0.36	 
100	 0	 2	 01	 2	 62	 3.130068e+02	 2091.jpg	 8371.jpg	 21	 9	 0	 u	 1	 0	 1050.34	 0.64	 0.74	 
100	 0	 2	 01	 2	 63	 3.170129e+02	 2352.1.jpg	 8380.jpg	 42	 49	 0	 i	 2	 1	 1076.23	 0.36	 0.30	 
100	 0	 2	 01	 2	 64	 3.220071e+02	 8350.jpg	 8220.jpg	 43	 45	 1	 u	 2	 1	 993.97	 0.34	 0.33	 
100	 0	 2	 01	 2	 65	 3.250117e+02	 8470.jpg	 5480.jpg	 47	 40	 0	 i	 2	 1	 949.39	 0.32	 0.37	 
100	 0	 2	 01	 2	 66	 3.300059e+02	 4610.jpg	 8420.jpg	 15	 14	 0	 u	 1	 0	 947.10	 0.70	 0.71	 
100	 0	 2	 01	 2	 67	 3.340120e+02	 4610.jpg	 2158.jpg	 15	 22	 0	 u	 1	 0	 908.99	 0.70	 0.64	 
100	 0	 2	 01	 2	 68	 3.380180e+02	 8420.jpg	 2030.jpg	 14	 12	 1	 u	 1	 1	 966.88	 0.71	 0.73	 
