subjectID	 scanner	 order	 block	 run	 trial	 onsettime	 ImageLeft	 ImageRight	 bidIndexLeft	 bidIndexRight	 IsleftGo	 Response	 PairType	 Outcome	 RT	 bidLeft	 bidRight	 
p_104	 0	 2	 01	 2	 1	 2.015887e+00	 8350.jpg	 5260.jpg	 51	 42	 1	 u	 2	 1	 757.16	 0.23	 0.38	 
p_104	 0	 2	 01	 2	 2	 5.007084e+00	 1660.jpg	 8470.jpg	 47	 48	 0	 i	 2	 1	 645.93	 0.26	 0.25	 
p_104	 0	 2	 01	 2	 3	 1.201770e+01	 8380.jpg	 4619.jpg	 52	 54	 0	 i	 2	 1	 603.24	 0.23	 0.22	 
p_104	 0	 2	 01	 2	 4	 1.601041e+01	 8001.jpg	 7430.jpg	 23	 38	 1	 u	 3	 1	 762.49	 0.57	 0.40	 
p_104	 0	 2	 01	 2	 5	 2.101800e+01	 8470.jpg	 5480.jpg	 48	 39	 1	 u	 2	 1	 578.85	 0.25	 0.39	 
p_104	 0	 2	 01	 2	 6	 2.501071e+01	 2091.jpg	 4626.jpg	 7	 11	 0	 i	 1	 1	 458.10	 0.80	 0.75	 
p_104	 0	 2	 01	 2	 7	 2.901678e+01	 5480.jpg	 7660.jpg	 39	 46	 0	 i	 2	 1	 507.99	 0.39	 0.26	 
p_104	 0	 2	 01	 2	 8	 3.200797e+01	 4601.jpg	 7291.jpg	 15	 8	 0	 i	 1	 1	 652.78	 0.67	 0.80	 
p_104	 0	 2	 01	 2	 9	 3.501252e+01	 4641.jpg	 2165.jpg	 12	 9	 0	 u	 1	 0	 672.20	 0.74	 0.76	 
p_104	 0	 2	 01	 2	 10	 4.000675e+01	 1540.jpg	 4640.jpg	 20	 17	 0	 i	 1	 1	 613.92	 0.65	 0.65	 
p_104	 0	 2	 01	 2	 11	 4.401282e+01	 4603.jpg	 7282.jpg	 16	 10	 1	 u	 1	 1	 775.81	 0.66	 0.75	 
p_104	 0	 2	 01	 2	 12	 4.900705e+01	 8208.jpg	 8350.jpg	 50	 51	 0	 i	 2	 1	 389.54	 0.23	 0.23	 
p_104	 0	 2	 01	 2	 13	 5.301312e+01	 1540.jpg	 2165.jpg	 20	 9	 0	 i	 1	 1	 679.41	 0.65	 0.76	 
p_104	 0	 2	 01	 2	 14	 5.601767e+01	 8350.jpg	 1660.jpg	 51	 47	 1	 u	 2	 1	 530.85	 0.23	 0.26	 
p_104	 0	 2	 01	 2	 15	 6.001038e+01	 5260.jpg	 2158.jpg	 42	 41	 0	 i	 2	 1	 474.10	 0.38	 0.38	 
p_104	 0	 2	 01	 2	 16	 6.600613e+01	 7660.jpg	 8208.jpg	 46	 50	 1	 u	 2	 1	 510.29	 0.26	 0.23	 
p_104	 0	 2	 01	 2	 17	 7.301675e+01	 2158.jpg	 8371.jpg	 41	 53	 1	 u	 2	 1	 507.58	 0.38	 0.23	 
p_104	 0	 2	 01	 2	 18	 7.600794e+01	 8371.jpg	 7660.jpg	 53	 46	 0	 i	 2	 1	 676.36	 0.23	 0.26	 
p_104	 0	 2	 01	 2	 19	 8.101552e+01	 4601.jpg	 4626.jpg	 15	 11	 0	 i	 1	 1	 540.74	 0.67	 0.75	 
p_104	 0	 2	 01	 2	 20	 8.600975e+01	 2347.jpg	 2209.jpg	 14	 21	 1	 u	 1	 1	 602.46	 0.70	 0.64	 
p_104	 0	 2	 01	 2	 21	 9.201885e+01	 5626.jpg	 1721.jpg	 24	 37	 1	 i	 4	 0	 929.29	 0.56	 0.41	 
p_104	 0	 2	 01	 2	 22	 9.601157e+01	 2346.jpg	 5260.jpg	 40	 42	 1	 u	 2	 1	 600.53	 0.39	 0.38	 
p_104	 0	 2	 01	 2	 23	 1.010058e+02	 4626.jpg	 7260.jpg	 11	 13	 1	 u	 1	 1	 742.23	 0.75	 0.72	 
p_104	 0	 2	 01	 2	 24	 1.080164e+02	 2058.jpg	 4601.jpg	 19	 15	 1	 u	 1	 1	 651.57	 0.65	 0.67	 
p_104	 0	 2	 01	 2	 25	 1.130106e+02	 5260.jpg	 7660.jpg	 42	 46	 0	 i	 2	 1	 649.29	 0.38	 0.26	 
p_104	 0	 2	 01	 2	 26	 1.180182e+02	 4603.jpg	 4641.jpg	 16	 12	 1	 u	 1	 1	 833.67	 0.66	 0.74	 
p_104	 0	 2	 01	 2	 27	 1.210094e+02	 2158.jpg	 8380.jpg	 41	 52	 1	 u	 2	 1	 738.44	 0.38	 0.23	 
p_104	 0	 2	 01	 2	 28	 1.240140e+02	 4603.jpg	 2091.jpg	 16	 7	 1	 i	 1	 0	 861.84	 0.66	 0.80	 
p_104	 0	 2	 01	 2	 29	 1.300097e+02	 7260.jpg	 2347.jpg	 13	 14	 0	 i	 1	 1	 1098.05	 0.72	 0.70	 
p_104	 0	 2	 01	 2	 30	 1.340158e+02	 8470.jpg	 5829.jpg	 48	 44	 1	 u	 2	 1	 683.95	 0.25	 0.34	 
p_104	 0	 2	 01	 2	 31	 1.430161e+02	 4641.jpg	 4626.jpg	 12	 11	 0	 u	 1	 0	 1043.55	 0.74	 0.75	 
p_104	 0	 2	 01	 2	 32	 1.480103e+02	 2352.1.jpg	 4641.jpg	 22	 12	 1	 i	 1	 0	 697.26	 0.60	 0.74	 
p_104	 0	 2	 01	 2	 33	 1.570106e+02	 5480.jpg	 2158.jpg	 39	 41	 0	 i	 2	 1	 968.87	 0.39	 0.38	 
p_104	 0	 2	 01	 2	 34	 1.600152e+02	 4603.jpg	 2155.jpg	 16	 18	 1	 u	 1	 1	 1220.29	 0.66	 0.65	 
p_104	 0	 2	 01	 2	 35	 1.640079e+02	 8340.jpg	 8380.jpg	 43	 52	 1	 u	 2	 1	 1275.56	 0.37	 0.23	 
p_104	 0	 2	 01	 2	 36	 1.700170e+02	 2345.jpg	 8001.jpg	 35	 23	 0	 u	 3	 0	 698.39	 0.43	 0.57	 
p_104	 0	 2	 01	 2	 37	 1.740097e+02	 8371.jpg	 8340.jpg	 53	 43	 0	 i	 2	 1	 873.65	 0.23	 0.37	 
p_104	 0	 2	 01	 2	 38	 1.810069e+02	 7260.jpg	 7291.jpg	 13	 8	 0	 i	 1	 1	 476.31	 0.72	 0.80	 
p_104	 0	 2	 01	 2	 39	 1.870160e+02	 8371.jpg	 4619.jpg	 53	 54	 0	 i	 2	 1	 1003.14	 0.23	 0.22	 
p_104	 0	 2	 01	 2	 40	 1.980060e+02	 8208.jpg	 2346.jpg	 50	 40	 0	 i	 2	 1	 645.07	 0.23	 0.39	 
p_104	 0	 2	 01	 2	 41	 2.030136e+02	 2058.jpg	 1540.jpg	 19	 20	 1	 u	 1	 1	 613.42	 0.65	 0.65	 
p_104	 0	 2	 01	 2	 42	 2.090094e+02	 7660.jpg	 5829.jpg	 46	 44	 1	 u	 2	 1	 529.61	 0.26	 0.34	 
p_104	 0	 2	 01	 2	 43	 2.200127e+02	 4619.jpg	 8208.jpg	 54	 50	 1	 u	 2	 1	 774.17	 0.22	 0.23	 
p_104	 0	 2	 01	 2	 44	 2.230172e+02	 7660.jpg	 7499.jpg	 46	 45	 1	 u	 2	 1	 1145.58	 0.26	 0.30	 
p_104	 0	 2	 01	 2	 45	 2.270099e+02	 2155.jpg	 2058.jpg	 18	 19	 0	 i	 1	 1	 568.85	 0.65	 0.65	 
p_104	 0	 2	 01	 2	 46	 2.380133e+02	 8371.jpg	 2346.jpg	 53	 40	 0	 i	 2	 1	 661.39	 0.23	 0.39	 
p_104	 0	 2	 01	 2	 47	 2.420060e+02	 4601.jpg	 2165.jpg	 15	 9	 0	 i	 1	 1	 756.65	 0.67	 0.76	 
p_104	 0	 2	 01	 2	 48	 2.450105e+02	 2209.jpg	 2058.jpg	 21	 19	 0	 i	 1	 1	 584.08	 0.64	 0.65	 
p_104	 0	 2	 01	 2	 49	 2.560139e+02	 1590.jpg	 2303.jpg	 25	 36	 1	 i	 4	 0	 692.64	 0.55	 0.41	 
p_104	 0	 2	 01	 2	 50	 2.610081e+02	 2352.1.jpg	 1540.jpg	 22	 20	 1	 u	 1	 1	 906.34	 0.60	 0.65	 
p_104	 0	 2	 01	 2	 51	 2.680187e+02	 8470.jpg	 5260.jpg	 48	 42	 1	 u	 2	 1	 1143.65	 0.25	 0.38	 
p_104	 0	 2	 01	 2	 52	 2.720114e+02	 4641.jpg	 2058.jpg	 12	 19	 0	 i	 1	 1	 606.90	 0.74	 0.65	 
p_104	 0	 2	 01	 2	 53	 2.760175e+02	 7291.jpg	 7282.jpg	 8	 10	 1	 u	 1	 1	 608.79	 0.80	 0.75	 
p_104	 0	 2	 01	 2	 54	 2.790087e+02	 8380.jpg	 7660.jpg	 52	 46	 0	 i	 2	 1	 697.57	 0.23	 0.26	 
p_104	 0	 2	 01	 2	 55	 2.850178e+02	 4601.jpg	 4603.jpg	 15	 16	 0	 i	 1	 1	 1016.41	 0.67	 0.66	 
p_104	 0	 2	 01	 2	 56	 2.890105e+02	 7260.jpg	 2165.jpg	 13	 9	 0	 i	 1	 1	 823.65	 0.72	 0.76	 
p_104	 0	 2	 01	 2	 57	 2.920151e+02	 4640.jpg	 7260.jpg	 17	 13	 1	 u	 1	 1	 1059.08	 0.65	 0.72	 
p_104	 0	 2	 01	 2	 58	 2.990123e+02	 2165.jpg	 2155.jpg	 9	 18	 1	 u	 1	 1	 629.75	 0.76	 0.65	 
p_104	 0	 2	 01	 2	 59	 3.030184e+02	 2346.jpg	 5829.jpg	 40	 44	 1	 i	 2	 0	 1135.63	 0.39	 0.34	 
p_104	 0	 2	 01	 2	 60	 3.060096e+02	 8470.jpg	 8371.jpg	 48	 53	 1	 i	 2	 0	 808.42	 0.25	 0.23	 
p_104	 0	 2	 01	 2	 61	 3.100156e+02	 8340.jpg	 5260.jpg	 43	 42	 1	 u	 2	 1	 746.30	 0.37	 0.38	 
p_104	 0	 2	 01	 2	 62	 3.130068e+02	 2209.jpg	 2165.jpg	 21	 9	 0	 i	 1	 1	 1203.12	 0.64	 0.76	 
p_104	 0	 2	 01	 2	 63	 3.170129e+02	 5260.jpg	 7250.jpg	 42	 49	 0	 i	 2	 1	 436.99	 0.38	 0.23	 
p_104	 0	 2	 01	 2	 64	 3.220071e+02	 8340.jpg	 7499.jpg	 43	 45	 1	 u	 2	 1	 834.73	 0.37	 0.30	 
p_104	 0	 2	 01	 2	 65	 3.250117e+02	 1660.jpg	 2346.jpg	 47	 40	 0	 i	 2	 1	 1046.11	 0.26	 0.39	 
p_104	 0	 2	 01	 2	 66	 3.300059e+02	 4601.jpg	 2347.jpg	 15	 14	 0	 i	 1	 1	 795.83	 0.67	 0.70	 
p_104	 0	 2	 01	 2	 67	 3.340120e+02	 4601.jpg	 2352.1.jpg	 15	 22	 0	 i	 1	 1	 933.72	 0.67	 0.60	 
p_104	 0	 2	 01	 2	 68	 3.380181e+02	 2347.jpg	 4641.jpg	 14	 12	 1	 u	 1	 1	 879.62	 0.70	 0.74	 
