subjectID	 scanner	 order	 block	 run	 trial	 onsettime	 ImageLeft	 ImageRight	 bidIndexLeft	 bidIndexRight	 IsleftGo	 Response	 PairType	 Outcome	 RT	 bidLeft	 bidRight	 
p_113	 0	 1	 01	 1	 1	 2.015722e+00	 5829.jpg	 8031.jpg	 39	 51	 1	 u	 2	 1	 708.38	 0.41	 0.34	 
p_113	 0	 1	 01	 1	 2	 7.023306e+00	 8510.jpg	 7480.jpg	 13	 9	 1	 i	 1	 0	 700.75	 0.64	 0.71	 
p_113	 0	 1	 01	 1	 3	 1.502209e+01	 4619.jpg	 2362.jpg	 48	 53	 0	 u	 2	 0	 917.88	 0.35	 0.25	 
p_113	 0	 1	 01	 1	 4	 1.801328e+01	 1720.jpg	 2030.jpg	 47	 49	 1	 i	 2	 0	 542.68	 0.35	 0.35	 
p_113	 0	 1	 01	 1	 5	 2.502390e+01	 4619.jpg	 8371.jpg	 48	 44	 0	 u	 2	 0	 515.99	 0.35	 0.40	 
p_113	 0	 1	 01	 1	 6	 2.801510e+01	 5199.jpg	 8380.jpg	 17	 18	 0	 i	 1	 1	 452.76	 0.59	 0.59	 
p_113	 0	 1	 01	 1	 7	 3.901843e+01	 8496.jpg	 8350.jpg	 7	 8	 1	 i	 1	 0	 473.30	 0.78	 0.71	 
p_113	 0	 1	 01	 1	 8	 4.301114e+01	 8033.jpg	 7480.jpg	 21	 9	 1	 u	 1	 1	 536.55	 0.58	 0.71	 
p_113	 0	 1	 01	 1	 9	 4.701721e+01	 7480.jpg	 7250.jpg	 9	 20	 0	 i	 1	 1	 378.44	 0.71	 0.58	 
p_113	 0	 1	 01	 1	 10	 5.002176e+01	 1721.jpg	 4610.jpg	 40	 50	 0	 i	 2	 1	 397.86	 0.41	 0.34	 
p_113	 0	 1	 01	 1	 11	 5.301295e+01	 8496.jpg	 4601.jpg	 7	 22	 1	 u	 1	 1	 366.66	 0.78	 0.56	 
p_113	 0	 1	 01	 1	 12	 5.802053e+01	 2373.jpg	 4619.jpg	 42	 48	 1	 i	 2	 0	 399.00	 0.40	 0.35	 
p_113	 0	 1	 01	 1	 13	 6.201325e+01	 2030.jpg	 4610.jpg	 49	 50	 0	 i	 2	 1	 478.25	 0.35	 0.34	 
p_113	 0	 1	 01	 1	 14	 7.101354e+01	 1590.jpg	 1721.jpg	 52	 40	 1	 u	 2	 1	 357.90	 0.32	 0.41	 
p_113	 0	 1	 01	 1	 15	 7.401809e+01	 4601.jpg	 8380.jpg	 22	 18	 0	 i	 1	 1	 769.29	 0.56	 0.59	 
p_113	 0	 1	 01	 1	 16	 7.901232e+01	 2158.jpg	 2303.jpg	 37	 25	 0	 u	 3	 0	 335.02	 0.44	 0.54	 
p_113	 0	 1	 01	 1	 17	 8.502142e+01	 7499.jpg	 8210.jpg	 14	 15	 0	 i	 1	 1	 813.85	 0.61	 0.59	 
p_113	 0	 1	 01	 1	 18	 8.801262e+01	 4601.jpg	 8340.jpg	 22	 12	 0	 u	 1	 0	 878.62	 0.56	 0.64	 
p_113	 0	 1	 01	 1	 19	 9.302020e+01	 8380.jpg	 7480.jpg	 18	 9	 1	 i	 1	 0	 350.98	 0.59	 0.71	 
p_113	 0	 1	 01	 1	 20	 9.701292e+01	 8380.jpg	 8280.jpg	 18	 16	 1	 u	 1	 1	 382.23	 0.59	 0.59	 
p_113	 0	 1	 01	 1	 21	 1.020205e+02	 7480.jpg	 8340.jpg	 9	 12	 0	 i	 1	 1	 406.60	 0.71	 0.64	 
p_113	 0	 1	 01	 1	 22	 1.070147e+02	 1720.jpg	 2347.jpg	 47	 46	 1	 u	 2	 1	 324.32	 0.35	 0.36	 
p_113	 0	 1	 01	 1	 23	 1.100193e+02	 7499.jpg	 8033.jpg	 14	 21	 0	 u	 1	 0	 631.75	 0.61	 0.58	 
p_113	 0	 1	 01	 1	 24	 1.130238e+02	 8380.jpg	 8350.jpg	 18	 8	 1	 i	 1	 0	 403.17	 0.59	 0.71	 
p_113	 0	 1	 01	 1	 25	 1.250153e+02	 8510.jpg	 8350.jpg	 13	 8	 1	 u	 1	 1	 395.55	 0.64	 0.71	 
p_113	 0	 1	 01	 1	 26	 1.290214e+02	 5199.jpg	 8033.jpg	 17	 21	 0	 i	 1	 1	 429.44	 0.59	 0.58	 
p_113	 0	 1	 01	 1	 27	 1.320126e+02	 2347.jpg	 2362.jpg	 46	 53	 0	 u	 2	 0	 438.21	 0.36	 0.25	 
p_113	 0	 1	 01	 1	 28	 1.390232e+02	 2362.jpg	 4606.jpg	 53	 43	 1	 i	 2	 0	 403.55	 0.25	 0.40	 
p_113	 0	 1	 01	 1	 29	 1.420144e+02	 4606.jpg	 4610.jpg	 43	 50	 0	 u	 2	 0	 428.30	 0.40	 0.34	 
p_113	 0	 1	 01	 1	 30	 1.490117e+02	 8033.jpg	 8350.jpg	 21	 8	 1	 i	 1	 0	 342.98	 0.58	 0.71	 
p_113	 0	 1	 01	 1	 31	 1.540192e+02	 4601.jpg	 8210.jpg	 22	 15	 0	 i	 1	 1	 503.33	 0.56	 0.59	 
p_113	 0	 1	 01	 1	 32	 1.580120e+02	 8496.jpg	 8001.jpg	 7	 19	 1	 i	 1	 0	 670.59	 0.78	 0.58	 
p_113	 0	 1	 01	 1	 33	 1.630195e+02	 8033.jpg	 4601.jpg	 21	 22	 1	 i	 1	 0	 534.95	 0.58	 0.56	 
p_113	 0	 1	 01	 1	 34	 1.690153e+02	 7282.jpg	 8380.jpg	 11	 18	 0	 i	 1	 1	 555.16	 0.66	 0.59	 
p_113	 0	 1	 01	 1	 35	 1.730214e+02	 4619.jpg	 4610.jpg	 48	 50	 0	 u	 2	 0	 429.04	 0.35	 0.34	 
p_113	 0	 1	 01	 1	 36	 1.760126e+02	 1590.jpg	 4606.jpg	 52	 43	 1	 i	 2	 0	 405.79	 0.32	 0.40	 
p_113	 0	 1	 01	 1	 37	 1.790171e+02	 5829.jpg	 2347.jpg	 39	 46	 1	 i	 2	 0	 401.23	 0.41	 0.36	 
p_113	 0	 1	 01	 1	 38	 1.820217e+02	 2352.1.jpg	 4610.jpg	 54	 50	 0	 u	 2	 0	 388.64	 0.24	 0.34	 
p_113	 0	 1	 01	 1	 39	 1.860144e+02	 7499.jpg	 7250.jpg	 14	 20	 0	 i	 1	 1	 323.90	 0.61	 0.58	 
p_113	 0	 1	 01	 1	 40	 1.900204e+02	 7282.jpg	 8496.jpg	 11	 7	 0	 i	 1	 1	 365.78	 0.66	 0.78	 
p_113	 0	 1	 01	 1	 41	 1.960162e+02	 8001.jpg	 8210.jpg	 19	 15	 0	 u	 1	 0	 457.97	 0.58	 0.59	 
p_113	 0	 1	 01	 1	 42	 2.050165e+02	 8420.jpg	 8350.jpg	 10	 8	 1	 u	 1	 1	 545.60	 0.67	 0.71	 
p_113	 0	 1	 01	 1	 43	 2.080210e+02	 4640.jpg	 2362.jpg	 41	 53	 0	 i	 2	 1	 397.02	 0.41	 0.25	 
p_113	 0	 1	 01	 1	 44	 2.120137e+02	 2373.jpg	 2347.jpg	 42	 46	 1	 i	 2	 0	 388.26	 0.40	 0.36	 
p_113	 0	 1	 01	 1	 45	 2.170213e+02	 4641.jpg	 4619.jpg	 45	 48	 1	 i	 2	 0	 540.63	 0.38	 0.35	 
p_113	 0	 1	 01	 1	 46	 2.200125e+02	 8420.jpg	 7480.jpg	 10	 9	 1	 i	 1	 0	 821.39	 0.67	 0.71	 
p_113	 0	 1	 01	 1	 47	 2.240186e+02	 2058.jpg	 5626.jpg	 35	 23	 0	 i	 4	 1	 519.28	 0.46	 0.56	 
p_113	 0	 1	 01	 1	 48	 2.340204e+02	 5199.jpg	 8496.jpg	 17	 7	 0	 u	 1	 0	 645.37	 0.59	 0.78	 
p_113	 0	 1	 01	 1	 49	 2.370116e+02	 8208.jpg	 1540.jpg	 26	 38	 1	 i	 4	 0	 638.15	 0.54	 0.44	 
p_113	 0	 1	 01	 1	 50	 2.470134e+02	 2373.jpg	 4606.jpg	 42	 43	 1	 i	 2	 0	 700.25	 0.40	 0.40	 
p_113	 0	 1	 01	 1	 51	 2.520210e+02	 1590.jpg	 2347.jpg	 52	 46	 1	 i	 2	 0	 956.61	 0.32	 0.36	 
p_113	 0	 1	 01	 1	 52	 2.570152e+02	 8371.jpg	 4606.jpg	 44	 43	 1	 i	 2	 0	 602.33	 0.40	 0.40	 
p_113	 0	 1	 01	 1	 53	 2.620228e+02	 5199.jpg	 8340.jpg	 17	 12	 0	 i	 1	 1	 474.69	 0.59	 0.64	 
p_113	 0	 1	 01	 1	 54	 2.650140e+02	 1721.jpg	 5829.jpg	 40	 39	 0	 i	 2	 1	 451.46	 0.41	 0.41	 
p_113	 0	 1	 01	 1	 55	 2.690201e+02	 2347.jpg	 4610.jpg	 46	 50	 0	 i	 2	 1	 517.35	 0.36	 0.34	 
p_113	 0	 1	 01	 1	 56	 2.770188e+02	 8001.jpg	 8510.jpg	 19	 13	 0	 u	 1	 0	 766.49	 0.58	 0.64	 
p_113	 0	 1	 01	 1	 57	 2.810116e+02	 1721.jpg	 2362.jpg	 40	 53	 0	 i	 2	 1	 773.74	 0.41	 0.25	 
p_113	 0	 1	 01	 1	 58	 2.840161e+02	 1590.jpg	 2352.1.jpg	 52	 54	 1	 i	 2	 0	 721.17	 0.32	 0.24	 
p_113	 0	 1	 01	 1	 59	 2.870207e+02	 7250.jpg	 8350.jpg	 20	 8	 1	 i	 1	 0	 796.58	 0.58	 0.71	 
p_113	 0	 1	 01	 1	 60	 3.000137e+02	 8371.jpg	 1721.jpg	 44	 40	 1	 i	 2	 0	 659.44	 0.40	 0.41	 
p_113	 0	 1	 01	 1	 61	 3.030182e+02	 7260.jpg	 2303.jpg	 36	 25	 0	 i	 3	 1	 726.86	 0.45	 0.54	 
p_113	 0	 1	 01	 1	 62	 3.070109e+02	 1590.jpg	 8031.jpg	 52	 51	 1	 u	 2	 1	 598.11	 0.32	 0.34	 
p_113	 0	 1	 01	 1	 63	 3.120185e+02	 8001.jpg	 8340.jpg	 19	 12	 0	 i	 1	 1	 470.48	 0.58	 0.64	 
p_113	 0	 1	 01	 1	 64	 3.210188e+02	 8031.jpg	 4610.jpg	 51	 50	 0	 i	 2	 1	 542.11	 0.34	 0.34	 
p_113	 0	 1	 01	 1	 65	 3.240234e+02	 8371.jpg	 2030.jpg	 44	 49	 1	 u	 2	 1	 681.51	 0.40	 0.35	 
p_113	 0	 1	 01	 1	 66	 3.270146e+02	 1720.jpg	 8031.jpg	 47	 51	 1	 i	 2	 0	 690.28	 0.35	 0.34	 
p_113	 0	 1	 01	 1	 67	 3.330237e+02	 5199.jpg	 8510.jpg	 17	 13	 0	 i	 1	 1	 489.12	 0.59	 0.64	 
p_113	 0	 1	 01	 1	 68	 3.380179e+02	 2373.jpg	 2030.jpg	 42	 49	 1	 i	 2	 0	 454.83	 0.40	 0.35	 
