subjectID	 scanner	 order	 block	 run	 trial	 onsettime	 ImageLeft	 ImageRight	 bidIndexLeft	 bidIndexRight	 IsleftGo	 Response	 PairType	 Outcome	 RT	 bidLeft	 bidRight	 
p_118	 0	 2	 02	 1	 1	 2.015877e+00	 2303.jpg	 8340.jpg	 51	 39	 1	 i	 2	 0	 909.05	 0.30	 0.42	 
p_118	 0	 2	 02	 1	 2	 7.010106e+00	 8350.jpg	 2303.jpg	 52	 51	 0	 i	 2	 1	 906.77	 0.30	 0.30	 
p_118	 0	 2	 02	 1	 3	 1.500889e+01	 8496.jpg	 2373.jpg	 42	 48	 0	 i	 2	 1	 1259.90	 0.41	 0.35	 
p_118	 0	 2	 02	 1	 4	 1.801344e+01	 8502.jpg	 8340.jpg	 54	 39	 1	 i	 2	 0	 911.33	 0.25	 0.42	 
p_118	 0	 2	 02	 1	 5	 2.501070e+01	 8210.jpg	 5260.jpg	 20	 19	 0	 i	 1	 1	 1305.99	 0.58	 0.58	 
p_118	 0	 2	 02	 1	 6	 2.801525e+01	 2165.jpg	 4606.jpg	 9	 13	 1	 i	 1	 0	 1293.41	 0.72	 0.68	 
p_118	 0	 2	 02	 1	 7	 3.901858e+01	 2057.jpg	 7660.jpg	 11	 15	 1	 u	 1	 1	 1233.97	 0.69	 0.63	 
p_118	 0	 2	 02	 1	 8	 4.301129e+01	 8510.jpg	 8210.jpg	 17	 20	 1	 i	 1	 0	 1017.22	 0.61	 0.58	 
p_118	 0	 2	 02	 1	 9	 4.701736e+01	 8502.jpg	 7470.jpg	 54	 50	 1	 u	 2	 1	 1155.10	 0.25	 0.33	 
p_118	 0	 2	 02	 1	 10	 5.000856e+01	 5260.jpg	 4641.jpg	 19	 7	 1	 x	 1	 999	 999000.00	 0.58	 0.74	 
p_118	 0	 2	 02	 1	 11	 5.301311e+01	 7250.jpg	 5480.jpg	 41	 47	 1	 x	 2	 999	 999000.00	 0.41	 0.37	 
p_118	 0	 2	 02	 1	 12	 5.800734e+01	 8371.jpg	 8380.jpg	 25	 36	 1	 u	 4	 1	 1045.03	 0.52	 0.44	 
p_118	 0	 2	 02	 1	 13	 6.201340e+01	 8420.jpg	 8031.jpg	 24	 37	 1	 u	 4	 1	 894.92	 0.54	 0.43	 
p_118	 0	 2	 02	 1	 14	 7.101370e+01	 2030.jpg	 2347.jpg	 10	 16	 0	 u	 1	 0	 1478.52	 0.70	 0.62	 
p_118	 0	 2	 02	 1	 15	 7.401825e+01	 8210.jpg	 2347.jpg	 20	 16	 0	 i	 1	 1	 1289.95	 0.58	 0.62	 
p_118	 0	 2	 02	 1	 16	 7.901248e+01	 8220.jpg	 5480.jpg	 40	 47	 1	 i	 2	 0	 663.68	 0.41	 0.37	 
p_118	 0	 2	 02	 1	 17	 8.500822e+01	 4641.jpg	 4619.jpg	 7	 14	 0	 u	 1	 0	 763.87	 0.74	 0.67	 
p_118	 0	 2	 02	 1	 18	 8.801278e+01	 8340.jpg	 8470.jpg	 39	 43	 0	 i	 2	 1	 831.28	 0.42	 0.41	 
p_118	 0	 2	 02	 1	 19	 9.300700e+01	 5480.jpg	 2303.jpg	 47	 51	 0	 x	 2	 999	 999000.00	 0.37	 0.30	 
p_118	 0	 2	 02	 1	 20	 9.701307e+01	 2058.jpg	 2091.jpg	 22	 18	 1	 u	 1	 1	 1142.89	 0.55	 0.59	 
p_118	 0	 2	 02	 1	 21	 1.020073e+02	 7660.jpg	 2165.jpg	 15	 9	 0	 i	 1	 1	 836.63	 0.63	 0.72	 
p_118	 0	 2	 02	 1	 22	 1.070149e+02	 5626.jpg	 7499.jpg	 26	 35	 1	 i	 3	 0	 452.98	 0.52	 0.45	 
p_118	 0	 2	 02	 1	 23	 1.100062e+02	 2347.jpg	 4606.jpg	 16	 13	 1	 u	 1	 1	 469.67	 0.62	 0.68	 
p_118	 0	 2	 02	 1	 24	 1.130106e+02	 2346.jpg	 2057.jpg	 12	 11	 0	 x	 1	 999	 999000.00	 0.69	 0.69	 
p_118	 0	 2	 02	 1	 25	 1.250155e+02	 1720.jpg	 8502.jpg	 44	 54	 0	 u	 2	 0	 1092.20	 0.41	 0.25	 
p_118	 0	 2	 02	 1	 26	 1.290082e+02	 5829.jpg	 4601.jpg	 8	 21	 1	 i	 1	 0	 635.44	 0.74	 0.57	 
p_118	 0	 2	 02	 1	 27	 1.320127e+02	 4601.jpg	 2058.jpg	 21	 22	 0	 u	 1	 0	 622.89	 0.57	 0.55	 
p_118	 0	 2	 02	 1	 28	 1.390100e+02	 4619.jpg	 4606.jpg	 14	 13	 1	 u	 1	 1	 649.53	 0.67	 0.68	 
p_118	 0	 2	 02	 1	 29	 1.420146e+02	 2303.jpg	 1720.jpg	 51	 44	 1	 u	 2	 1	 1356.95	 0.30	 0.41	 
p_118	 0	 2	 02	 1	 30	 1.490118e+02	 4641.jpg	 2347.jpg	 7	 16	 0	 u	 1	 0	 1127.64	 0.74	 0.62	 
p_118	 0	 2	 02	 1	 31	 1.540062e+02	 7480.jpg	 2303.jpg	 45	 51	 0	 u	 2	 0	 597.22	 0.40	 0.30	 
p_118	 0	 2	 02	 1	 32	 1.580121e+02	 2362.jpg	 7499.jpg	 23	 35	 1	 u	 3	 1	 1023.23	 0.54	 0.45	 
p_118	 0	 2	 02	 1	 33	 1.630063e+02	 4619.jpg	 4601.jpg	 14	 21	 1	 u	 1	 1	 524.96	 0.67	 0.57	 
p_118	 0	 2	 02	 1	 34	 1.690154e+02	 2346.jpg	 5260.jpg	 12	 19	 0	 i	 1	 1	 1139.79	 0.69	 0.58	 
p_118	 0	 2	 02	 1	 35	 1.730082e+02	 2030.jpg	 2058.jpg	 10	 22	 0	 u	 1	 0	 891.05	 0.70	 0.55	 
p_118	 0	 2	 02	 1	 36	 1.760127e+02	 8470.jpg	 8350.jpg	 43	 52	 1	 i	 2	 0	 1118.46	 0.41	 0.30	 
p_118	 0	 2	 02	 1	 37	 1.790173e+02	 8340.jpg	 8280.jpg	 39	 49	 0	 u	 2	 0	 1153.89	 0.42	 0.35	 
p_118	 0	 2	 02	 1	 38	 1.820085e+02	 2346.jpg	 2347.jpg	 12	 16	 0	 x	 1	 999	 999000.00	 0.69	 0.62	 
p_118	 0	 2	 02	 1	 39	 1.860145e+02	 8502.jpg	 8350.jpg	 54	 52	 1	 i	 2	 0	 812.56	 0.25	 0.30	 
p_118	 0	 2	 02	 1	 40	 1.900072e+02	 8510.jpg	 2091.jpg	 17	 18	 1	 i	 1	 0	 1219.79	 0.61	 0.59	 
p_118	 0	 2	 02	 1	 41	 1.960163e+02	 8510.jpg	 7660.jpg	 17	 15	 1	 u	 1	 1	 1066.64	 0.61	 0.63	 
p_118	 0	 2	 02	 1	 42	 2.050166e+02	 4619.jpg	 8210.jpg	 14	 20	 1	 u	 1	 1	 914.24	 0.67	 0.58	 
p_118	 0	 2	 02	 1	 43	 2.080078e+02	 5480.jpg	 2373.jpg	 47	 48	 0	 i	 2	 1	 1091.02	 0.37	 0.35	 
p_118	 0	 2	 02	 1	 44	 2.120139e+02	 5260.jpg	 2030.jpg	 19	 10	 1	 i	 1	 0	 1420.91	 0.58	 0.70	 
p_118	 0	 2	 02	 1	 45	 2.170081e+02	 8510.jpg	 2346.jpg	 17	 12	 1	 i	 1	 0	 1082.64	 0.61	 0.69	 
p_118	 0	 2	 02	 1	 46	 2.200127e+02	 4641.jpg	 2058.jpg	 7	 22	 0	 u	 1	 0	 814.07	 0.74	 0.55	 
p_118	 0	 2	 02	 1	 47	 2.240187e+02	 7660.jpg	 2347.jpg	 15	 16	 0	 i	 1	 1	 791.97	 0.63	 0.62	 
p_118	 0	 2	 02	 1	 48	 2.340072e+02	 8502.jpg	 7291.jpg	 54	 53	 1	 u	 2	 1	 851.41	 0.25	 0.28	 
p_118	 0	 2	 02	 1	 49	 2.370117e+02	 8496.jpg	 8470.jpg	 42	 43	 0	 i	 2	 1	 918.83	 0.41	 0.41	 
p_118	 0	 2	 02	 1	 50	 2.470136e+02	 2209.jpg	 8350.jpg	 46	 52	 1	 u	 2	 1	 1316.90	 0.38	 0.30	 
p_118	 0	 2	 02	 1	 51	 2.520078e+02	 2209.jpg	 7291.jpg	 46	 53	 1	 x	 2	 999	 999000.00	 0.38	 0.28	 
p_118	 0	 2	 02	 1	 52	 2.570154e+02	 2091.jpg	 4619.jpg	 18	 14	 0	 u	 1	 0	 963.00	 0.59	 0.67	 
p_118	 0	 2	 02	 1	 53	 2.620096e+02	 2373.jpg	 8340.jpg	 48	 39	 1	 i	 2	 0	 1008.72	 0.35	 0.42	 
p_118	 0	 2	 02	 1	 54	 2.650142e+02	 7291.jpg	 8220.jpg	 53	 40	 0	 i	 2	 1	 1140.12	 0.28	 0.41	 
p_118	 0	 2	 02	 1	 55	 2.690069e+02	 7291.jpg	 8280.jpg	 53	 49	 0	 i	 2	 1	 1195.38	 0.28	 0.35	 
p_118	 0	 2	 02	 1	 56	 2.770190e+02	 8340.jpg	 7250.jpg	 39	 41	 0	 u	 2	 0	 943.16	 0.42	 0.41	 
p_118	 0	 2	 02	 1	 57	 2.810117e+02	 7470.jpg	 8470.jpg	 50	 43	 0	 i	 2	 1	 870.42	 0.33	 0.41	 
p_118	 0	 2	 02	 1	 58	 2.840163e+02	 8210.jpg	 2057.jpg	 20	 11	 0	 i	 1	 1	 729.82	 0.58	 0.69	 
p_118	 0	 2	 02	 1	 59	 2.870075e+02	 8340.jpg	 2209.jpg	 39	 46	 0	 i	 2	 1	 970.62	 0.42	 0.38	 
p_118	 0	 2	 02	 1	 60	 3.000138e+02	 5260.jpg	 4606.jpg	 19	 13	 1	 i	 1	 0	 796.10	 0.58	 0.68	 
p_118	 0	 2	 02	 1	 61	 3.030184e+02	 8220.jpg	 1720.jpg	 40	 44	 1	 u	 2	 1	 1087.52	 0.41	 0.41	 
p_118	 0	 2	 02	 1	 62	 3.070111e+02	 2091.jpg	 2057.jpg	 18	 11	 0	 i	 1	 1	 806.77	 0.59	 0.69	 
p_118	 0	 2	 02	 1	 63	 3.120187e+02	 2346.jpg	 5829.jpg	 12	 8	 0	 u	 1	 0	 999.13	 0.69	 0.74	 
p_118	 0	 2	 02	 1	 64	 3.210190e+02	 2373.jpg	 7291.jpg	 48	 53	 1	 u	 2	 1	 958.77	 0.35	 0.28	 
p_118	 0	 2	 02	 1	 65	 3.240102e+02	 5480.jpg	 2209.jpg	 47	 46	 0	 i	 2	 1	 831.52	 0.37	 0.38	 
p_118	 0	 2	 02	 1	 66	 3.270147e+02	 8220.jpg	 8340.jpg	 40	 39	 1	 i	 2	 0	 802.94	 0.41	 0.42	 
p_118	 0	 2	 02	 1	 67	 3.330105e+02	 7480.jpg	 8220.jpg	 45	 40	 0	 i	 2	 1	 631.13	 0.40	 0.41	 
p_118	 0	 2	 02	 1	 68	 3.380180e+02	 8496.jpg	 2209.jpg	 42	 46	 0	 i	 2	 1	 647.51	 0.41	 0.38	 
