subjectID	scanner	order	block	run	trial	onsettime	ImageLeft	ImageRight	bidIndexLeft	bidIndexRight	IsleftGo	Response	PairType	Outcome	RT	bidLeft	bidRight	
CAr_122	 0	 2	 02	 1	 1	 2.018641e+00	 ClickXLbrown4.bmp	 Taami.bmp	 52	 43	 0	 x	 2	 999	 999000.00	 0.11	 1.67	 
CAr_122	 0	 2	 02	 1	 2	 9.026728e+00	 BisliOnion.bmp	 Popco.bmp	 19	 20	 0	 i	 4	 1	 806.66	 4.40	 4.40	 
CAr_122	 0	 2	 02	 1	 3	 1.203019e+01	 Smarties.bmp	 Mars.bmp	 48	 50	 1	 i	 2	 0	 641.27	 0.62	 0.58	 
CAr_122	 0	 2	 02	 1	 4	 1.603456e+01	 ChocolateParaCookies5.bmp	 Loacker.bmp	 9	 12	 1	 i	 1	 0	 1260.91	 5.87	 4.87	 
CAr_122	 0	 2	 02	 1	 5	 2.703029e+01	 Dubonim.bmp	 Popco.bmp	 22	 20	 0	 i	 4	 1	 833.19	 4.29	 4.40	 
CAr_122	 0	 2	 02	 1	 6	 3.201893e+01	 Kitkat.bmp	 ChocolateParaMilk3.bmp	 17	 13	 1	 u	 1	 1	 1388.56	 4.82	 4.87	 
CAr_122	 0	 2	 02	 1	 7	 3.502231e+01	 Kitkat.bmp	 Loacker.bmp	 17	 12	 1	 x	 1	 999	 999000.00	 4.82	 4.87	 
CAr_122	 0	 2	 02	 1	 8	 3.802596e+01	 KifkefMaklot2.bmp	 Hit.bmp	 16	 10	 1	 i	 1	 0	 741.52	 4.82	 5.80	 
CAr_122	 0	 2	 02	 1	 9	 4.503381e+01	 Tortit.bmp	 Halva2.bmp	 44	 46	 0	 u	 2	 0	 717.67	 1.64	 1.09	 
CAr_122	 0	 2	 02	 1	 10	 5.002274e+01	 CrunchShokoVanil.bmp	 Smarties.bmp	 45	 48	 0	 u	 2	 0	 864.74	 1.60	 0.62	 
CAr_122	 0	 2	 02	 1	 11	 5.703059e+01	 Hit.bmp	 Mekupelet.bmp	 10	 11	 0	 u	 1	 0	 1112.88	 5.80	 4.89	 
CAr_122	 0	 2	 02	 1	 12	 6.502295e+01	 Tictac.bmp	 BagaleShtuhim.bmp	 47	 49	 0	 x	 2	 999	 999000.00	 0.64	 0.58	 
CAr_122	 0	 2	 02	 1	 13	 6.902736e+01	 Keifli.bmp	 CrunchBisquitBrown3.bmp	 56	 5	 0	 i	 3	 1	 1212.12	 0.07	 6.91	 
CAr_122	 0	 2	 02	 1	 14	 7.902195e+01	 KinderBuenoWhite2.bmp	 ChocolateParaSucariotKoftzot2.bmp	 8	 15	 1	 u	 1	 1	 1161.53	 5.89	 4.82	 
CAr_122	 0	 2	 02	 1	 15	 8.202533e+01	 Smarties.bmp	 DoritosNatural.bmp	 48	 53	 1	 i	 2	 0	 817.64	 0.62	 0.07	 
CAr_122	 0	 2	 02	 1	 16	 8.703092e+01	 Loacker.bmp	 KinderBuenoWhite2.bmp	 12	 8	 0	 x	 1	 999	 999000.00	 4.87	 5.89	 
CAr_122	 0	 2	 02	 1	 17	 9.302108e+01	 Halva2.bmp	 ClickXLbrown4.bmp	 46	 52	 1	 i	 2	 0	 1290.40	 1.09	 0.11	 
CAr_122	 0	 2	 02	 1	 18	 9.602439e+01	 ClickXLwhite4.bmp	 CrunchShokoVanil.bmp	 54	 45	 1	 i	 2	 0	 999.09	 0.07	 1.60	 
CAr_122	 0	 2	 02	 1	 19	 9.902774e+01	 Bamba.bmp	 Mentos.bmp	 39	 42	 0	 u	 5	 0	 795.74	 2.22	 2.02	 
CAr_122	 0	 2	 02	 1	 20	 1.020311e+02	 Mars.bmp	 BagaleShtuhim.bmp	 50	 49	 0	 u	 2	 0	 1304.33	 0.58	 0.58	 
CAr_122	 0	 2	 02	 1	 21	 1.050345e+02	 Loacker.bmp	 Mekupelet.bmp	 12	 11	 0	 u	 1	 0	 1116.92	 4.87	 4.89	 
CAr_122	 0	 2	 02	 1	 22	 1.080213e+02	 KinderBuenoWhite2.bmp	 ChocolateParaMilk3.bmp	 8	 13	 1	 u	 1	 1	 818.22	 5.89	 4.87	 
CAr_122	 0	 2	 02	 1	 23	 1.120256e+02	 ChocolateParaCookies5.bmp	 ChocolateParaSucariotKoftzot2.bmp	 9	 15	 1	 u	 1	 1	 845.85	 5.87	 4.82	 
CAr_122	 0	 2	 02	 1	 24	 1.160302e+02	 Tictac.bmp	 Taami.bmp	 47	 43	 0	 i	 2	 1	 1057.25	 0.64	 1.67	 
CAr_122	 0	 2	 02	 1	 25	 1.230214e+02	 Dubonim.bmp	 BisliOnion.bmp	 22	 19	 1	 u	 4	 1	 770.10	 4.29	 4.40	 
CAr_122	 0	 2	 02	 1	 26	 1.260248e+02	 Snickers.bmp	 ClickXLbrown4.bmp	 51	 52	 1	 i	 2	 0	 1222.71	 0.51	 0.11	 
CAr_122	 0	 2	 02	 1	 27	 1.290282e+02	 Kitkat.bmp	 ChocolateParaMarir2.bmp	 17	 7	 1	 u	 1	 1	 939.30	 4.82	 5.91	 
CAr_122	 0	 2	 02	 1	 28	 1.330326e+02	 Halva2.bmp	 Tictac.bmp	 46	 47	 1	 u	 2	 1	 766.86	 1.09	 0.64	 
CAr_122	 0	 2	 02	 1	 29	 1.420260e+02	 ClickXLwhite4.bmp	 DoritosNatural.bmp	 54	 53	 1	 x	 2	 999	 999000.00	 0.07	 0.07	 
CAr_122	 0	 2	 02	 1	 30	 1.450293e+02	 ClickXLwhite4.bmp	 ClickXLbrown4.bmp	 54	 52	 1	 i	 2	 0	 938.14	 0.07	 0.11	 
CAr_122	 0	 2	 02	 1	 31	 1.480328e+02	 Taami.bmp	 Tortit.bmp	 43	 44	 1	 u	 2	 1	 783.28	 1.67	 1.64	 
CAr_122	 0	 2	 02	 1	 32	 1.540228e+02	 ChocolateParaSucariotKoftzot2.bmp	 Mekupelet.bmp	 15	 11	 0	 u	 1	 0	 1120.98	 4.82	 4.89	 
CAr_122	 0	 2	 02	 1	 33	 1.600296e+02	 Dubonim.bmp	 BisliPizza3.bmp	 22	 21	 0	 u	 4	 0	 932.35	 4.29	 4.31	 
CAr_122	 0	 2	 02	 1	 34	 1.650351e+02	 BagaleShtuhim.bmp	 ClickXLbrown4.bmp	 49	 52	 1	 i	 2	 0	 1268.33	 0.58	 0.11	 
CAr_122	 0	 2	 02	 1	 35	 1.690230e+02	 Mars.bmp	 Taami.bmp	 50	 43	 0	 x	 2	 999	 999000.00	 0.58	 1.67	 
CAr_122	 0	 2	 02	 1	 36	 1.730275e+02	 ChocolateParaSucariotKoftzot2.bmp	 KifkefMaklot2.bmp	 15	 16	 0	 u	 1	 0	 876.02	 4.82	 4.82	 
CAr_122	 0	 2	 02	 1	 37	 1.760308e+02	 Bamba.bmp	 Shugi.bmp	 39	 40	 0	 u	 5	 0	 672.67	 2.22	 2.16	 
CAr_122	 0	 2	 02	 1	 38	 1.790342e+02	 GumiWine2.bmp	 ChocolateParaSucariotKoftzot2.bmp	 14	 15	 1	 i	 1	 0	 925.26	 4.84	 4.82	 
CAr_122	 0	 2	 02	 1	 39	 1.820209e+02	 Hit.bmp	 KinderBuenoWhite2.bmp	 10	 8	 0	 x	 1	 999	 999000.00	 5.80	 5.89	 
CAr_122	 0	 2	 02	 1	 40	 1.860254e+02	 ChocolateParaMilk3.bmp	 Mekupelet.bmp	 13	 11	 0	 u	 1	 0	 998.12	 4.87	 4.89	 
CAr_122	 0	 2	 02	 1	 41	 1.950185e+02	 GumiWine2.bmp	 Hit.bmp	 14	 10	 1	 i	 1	 0	 692.98	 4.84	 5.80	 
CAr_122	 0	 2	 02	 1	 42	 1.980223e+02	 KifkefMaklot2.bmp	 ChocolateParaMilk3.bmp	 16	 13	 1	 i	 1	 0	 657.22	 4.82	 4.87	 
CAr_122	 0	 2	 02	 1	 43	 2.040290e+02	 GumiSnakes3.bmp	 KifkefMaklot2.bmp	 18	 16	 0	 u	 1	 0	 690.52	 4.73	 4.82	 
CAr_122	 0	 2	 02	 1	 44	 2.070324e+02	 Tortit.bmp	 Smarties.bmp	 44	 48	 0	 i	 2	 1	 1343.10	 1.64	 0.62	 
CAr_122	 0	 2	 02	 1	 45	 2.150247e+02	 GumiSnakes3.bmp	 Mekupelet.bmp	 18	 11	 0	 i	 1	 1	 983.36	 4.73	 4.89	 
CAr_122	 0	 2	 02	 1	 46	 2.220325e+02	 Tortit.bmp	 ClickXLwhite4.bmp	 44	 54	 0	 u	 2	 0	 854.96	 1.64	 0.07	 
CAr_122	 0	 2	 02	 1	 47	 2.250188e+02	 ClickXLwhite4.bmp	 Mars.bmp	 54	 50	 1	 i	 2	 0	 972.67	 0.07	 0.58	 
CAr_122	 0	 2	 02	 1	 48	 2.300248e+02	 Bounty.bmp	 CrunchBisquitBrown3.bmp	 55	 5	 0	 i	 3	 1	 558.71	 0.07	 6.91	 
CAr_122	 0	 2	 02	 1	 49	 2.350304e+02	 Tortit.bmp	 BagaleShtuhim.bmp	 44	 49	 0	 u	 2	 0	 985.06	 1.64	 0.58	 
CAr_122	 0	 2	 02	 1	 50	 2.390179e+02	 Mentos.bmp	 BabyDoll.bmp	 42	 41	 1	 u	 5	 1	 1309.60	 2.02	 2.13	 
CAr_122	 0	 2	 02	 1	 51	 2.460261e+02	 Snickers.bmp	 DoritosNatural.bmp	 51	 53	 1	 x	 2	 999	 999000.00	 0.51	 0.07	 
CAr_122	 0	 2	 02	 1	 52	 2.490294e+02	 BabyDoll.bmp	 Mentos.bmp	 41	 42	 1	 i	 5	 0	 922.04	 2.13	 2.02	 
CAr_122	 0	 2	 02	 1	 53	 2.550196e+02	 DoritosNatural.bmp	 Halva2.bmp	 53	 46	 0	 u	 2	 0	 819.87	 0.07	 1.09	 
CAr_122	 0	 2	 02	 1	 54	 2.610262e+02	 DoritosNatural.bmp	 Taami.bmp	 53	 43	 0	 i	 2	 1	 685.26	 0.07	 1.67	 
CAr_122	 0	 2	 02	 1	 55	 2.640297e+02	 GumiWine2.bmp	 GumiSnakes3.bmp	 14	 18	 1	 x	 1	 999	 999000.00	 4.84	 4.73	 
CAr_122	 0	 2	 02	 1	 56	 2.670330e+02	 CrunchShokoVanil.bmp	 Snickers.bmp	 45	 51	 0	 u	 2	 0	 974.46	 1.60	 0.51	 
CAr_122	 0	 2	 02	 1	 57	 2.730230e+02	 DoritosNatural.bmp	 BagaleShtuhim.bmp	 53	 49	 0	 u	 2	 0	 1208.43	 0.07	 0.58	 
CAr_122	 0	 2	 02	 1	 58	 2.780287e+02	 KifkefMaklot2.bmp	 ChocolateParaMarir2.bmp	 16	 7	 1	 u	 1	 1	 874.78	 4.82	 5.91	 
CAr_122	 0	 2	 02	 1	 59	 2.830343e+02	 Mentos.bmp	 Bamba.bmp	 42	 39	 1	 i	 5	 0	 1069.17	 2.02	 2.22	 
CAr_122	 0	 2	 02	 1	 60	 2.890243e+02	 ChocolateParaCookies5.bmp	 Hit.bmp	 9	 10	 1	 i	 1	 0	 775.16	 5.87	 5.80	 
CAr_122	 0	 2	 02	 1	 61	 2.920278e+02	 ChocolateParaCookies5.bmp	 ChocolateParaMarir2.bmp	 9	 7	 1	 u	 1	 1	 731.73	 5.87	 5.91	 
CAr_122	 0	 2	 02	 1	 62	 2.950310e+02	 GumiWine2.bmp	 Loacker.bmp	 14	 12	 1	 i	 1	 0	 688.44	 4.84	 4.87	 
CAr_122	 0	 2	 02	 1	 63	 2.980345e+02	 Halva2.bmp	 CrunchShokoVanil.bmp	 46	 45	 1	 i	 2	 0	 548.98	 1.09	 1.60	 
CAr_122	 0	 2	 02	 1	 64	 3.020223e+02	 ChocolateParaMarir2.bmp	 KinderBuenoWhite2.bmp	 7	 8	 0	 i	 1	 1	 665.22	 5.91	 5.89	 
CAr_122	 0	 2	 02	 1	 65	 3.060268e+02	 Kitkat.bmp	 GumiSnakes3.bmp	 17	 18	 1	 u	 1	 1	 780.66	 4.82	 4.73	 
CAr_122	 0	 2	 02	 1	 66	 3.120336e+02	 Halva2.bmp	 Mars.bmp	 46	 50	 1	 i	 2	 0	 645.86	 1.09	 0.58	 
CAr_122	 0	 2	 02	 1	 67	 3.170225e+02	 Tictac.bmp	 Snickers.bmp	 47	 51	 0	 i	 2	 1	 560.99	 0.64	 0.51	 
CAr_122	 0	 2	 02	 1	 68	 3.210269e+02	 ChocolateParaMilk3.bmp	 GumiWine2.bmp	 13	 14	 0	 u	 1	 0	 660.54	 4.87	 4.84	 
CAr_122	 0	 2	 02	 1	 69	 3.250314e+02	 Hit.bmp	 Kitkat.bmp	 10	 17	 0	 i	 1	 1	 800.04	 5.80	 4.82	 
CAr_122	 0	 2	 02	 1	 70	 3.340249e+02	 ChocolateParaSucariotKoftzot2.bmp	 Kitkat.bmp	 15	 17	 0	 i	 1	 1	 902.56	 4.82	 4.82	 
CAr_122	 0	 2	 02	 1	 71	 3.390305e+02	 Smarties.bmp	 Tictac.bmp	 48	 47	 1	 u	 2	 1	 1064.98	 0.62	 0.64	 
CAr_122	 0	 2	 02	 1	 72	 3.430350e+02	 GumiWine2.bmp	 ChocolateParaMarir2.bmp	 14	 7	 1	 i	 1	 0	 1076.46	 4.84	 5.91	 
CAr_122	 0	 2	 02	 1	 73	 3.480239e+02	 Smarties.bmp	 ClickXLbrown4.bmp	 48	 52	 1	 i	 2	 0	 1111.58	 0.62	 0.11	 
CAr_122	 0	 2	 02	 1	 74	 3.550318e+02	 PesekZman.bmp	 Keifli.bmp	 6	 56	 1	 u	 3	 1	 783.66	 5.93	 0.07	 
CAr_122	 0	 2	 02	 1	 75	 3.610218e+02	 ClickXLwhite4.bmp	 Tictac.bmp	 54	 47	 1	 u	 2	 1	 937.68	 0.07	 0.64	 
CAr_122	 0	 2	 02	 1	 76	 3.680297e+02	 Mekupelet.bmp	 ChocolateParaMarir2.bmp	 11	 7	 1	 u	 1	 1	 1217.78	 4.89	 5.91	 
CAr_122	 0	 2	 02	 1	 77	 3.710331e+02	 Taami.bmp	 CrunchShokoVanil.bmp	 43	 45	 1	 u	 2	 1	 1102.41	 1.67	 1.60	 
CAr_122	 0	 2	 02	 1	 78	 3.780242e+02	 Snickers.bmp	 Tortit.bmp	 51	 44	 1	 i	 2	 0	 1335.24	 0.51	 1.64	 
CAr_122	 0	 2	 02	 1	 79	 3.820287e+02	 Dubonim.bmp	 Popco.bmp	 22	 20	 0	 i	 4	 1	 1002.78	 4.29	 4.40	 
CAr_122	 0	 2	 02	 1	 80	 3.880186e+02	 ChocolateParaCookies5.bmp	 GumiSnakes3.bmp	 9	 18	 1	 u	 1	 1	 748.89	 5.87	 4.73	 
CAr_122	 0	 2	 02	 1	 81	 3.960275e+02	 ChocolateParaCookies5.bmp	 ChocolateParaMilk3.bmp	 9	 13	 1	 u	 1	 1	 1003.95	 5.87	 4.87	 
CAr_122	 0	 2	 02	 1	 82	 3.990310e+02	 Snickers.bmp	 Mars.bmp	 51	 50	 1	 i	 2	 0	 874.33	 0.51	 0.58	 
CAr_122	 0	 2	 02	 1	 83	 4.130299e+02	 Loacker.bmp	 KifkefMaklot2.bmp	 12	 16	 0	 u	 1	 0	 1041.54	 4.87	 4.82	 
CAr_122	 0	 2	 02	 1	 84	 4.160334e+02	 Dubonim.bmp	 BisliPizza3.bmp	 22	 21	 1	 x	 4	 999	 999000.00	 4.29	 4.31	 
CAr_122	 0	 2	 02	 1	 85	 4.200213e+02	 BagaleShtuhim.bmp	 CrunchShokoVanil.bmp	 49	 45	 1	 i	 2	 0	 762.14	 0.58	 1.60	 
CAr_122	 0	 2	 02	 1	 86	 4.250270e+02	 PesekZman.bmp	 Bounty.bmp	 6	 55	 1	 u	 3	 1	 652.53	 5.93	 0.07	 
CAr_122	 0	 2	 02	 1	 87	 4.280304e+02	 GumiSnakes3.bmp	 KinderBuenoWhite2.bmp	 18	 8	 0	 i	 1	 1	 689.08	 4.73	 5.89	 
CAr_122	 0	 2	 02	 1	 88	 4.380249e+02	 BabyDoll.bmp	 Mentos.bmp	 41	 42	 1	 u	 5	 1	 1134.59	 2.13	 2.02	 
