subjectID	scanner	order	block	run	trial	onsettime	ImageLeft	ImageRight	bidIndexLeft	bidIndexRight	IsleftGo	Response	PairType	Outcome	RT	bidLeft	bidRight
BFE_303	0	1	01	1	1	2.020454e+00	2213.jpg	2120.jpg	43	78	1	u	4	1	1002.91	0.76	0.20
BFE_303	0	1	01	1	2	7.024355e+00	1206.jpg	1208.jpg	17	7	0	i	1	1	943.01	0.54	0.71
BFE_303	0	1	01	1	3	1.503329e+01	2204.jpg	2211.jpg	55	49	1	i	2	0	1038.08	0.61	0.67
BFE_303	0	1	01	1	4	1.802007e+01	1206.jpg	1217.jpg	17	18	0	i	1	1	1291.31	0.54	0.53
BFE_303	0	1	01	1	5	2.502785e+01	2211.jpg	2212.jpg	49	53	0	u	2	0	1187.52	0.67	0.62
BFE_303	0	1	01	1	6	2.803132e+01	2219.jpg	2205.jpg	56	50	0	u	2	0	1104.05	0.56	0.66
BFE_303	0	1	01	1	7	3.902692e+01	1117.jpg	1216.jpg	16	13	0	i	1	1	836.44	0.56	0.64
BFE_303	0	1	01	1	8	4.303144e+01	2209.jpg	2113.jpg	44	77	1	u	4	1	1223.93	0.75	0.24
BFE_303	0	1	01	1	9	4.701933e+01	2205.jpg	2208.jpg	50	54	1	u	2	1	1292.05	0.66	0.62
BFE_303	0	1	01	1	10	5.002261e+01	2110.jpg	2103.jpg	52	51	1	i	2	0	1144.76	0.63	0.64
BFE_303	0	1	01	1	11	5.302605e+01	1208.jpg	1209.jpg	7	14	1	i	1	0	757.32	0.71	0.63
BFE_303	0	1	01	1	12	5.803160e+01	1209.jpg	1211.jpg	14	12	0	i	1	1	815.77	0.63	0.65
BFE_303	0	1	01	1	13	6.201954e+01	1217.jpg	1209.jpg	18	14	1	i	1	0	955.83	0.53	0.63
BFE_303	0	1	01	1	14	7.102952e+01	1102.jpg	1205.jpg	38	4	0	i	3	1	793.90	0.19	0.80
BFE_303	0	1	01	1	15	7.403290e+01	2217.jpg	2204.jpg	57	55	0	x	2	999	999000.00	0.55	0.61
BFE_303	0	1	01	1	16	7.902186e+01	2212.jpg	2207.jpg	53	48	1	u	2	1	817.51	0.62	0.68
BFE_303	0	1	01	1	17	8.502855e+01	1206.jpg	1211.jpg	17	12	0	i	1	1	618.82	0.54	0.65
BFE_303	0	1	01	1	18	8.803193e+01	2103.jpg	2214.jpg	51	58	0	u	2	0	911.43	0.64	0.55
BFE_303	0	1	01	1	19	9.302096e+01	2217.jpg	2110.jpg	57	52	0	i	2	1	650.41	0.55	0.63
BFE_303	0	1	01	1	20	9.702539e+01	1211.jpg	1207.jpg	12	11	1	i	1	0	885.98	0.65	0.67
BFE_303	0	1	01	1	21	1.020310e+02	1103.jpg	1218.jpg	10	9	1	i	1	0	616.41	0.69	0.69
BFE_303	0	1	01	1	22	1.070199e+02	1218.jpg	1104.jpg	9	15	0	u	1	0	931.46	0.69	0.58
BFE_303	0	1	01	1	23	1.100233e+02	2215.jpg	2104.jpg	61	62	0	u	6	0	880.05	0.49	0.48
BFE_303	0	1	01	1	24	1.130267e+02	1117.jpg	1217.jpg	16	18	0	u	1	0	1260.65	0.56	0.53
BFE_303	0	1	01	1	25	1.250234e+02	1211.jpg	1218.jpg	12	9	1	i	1	0	735.92	0.65	0.69
BFE_303	0	1	01	1	26	1.290279e+02	2211.jpg	2110.jpg	49	52	0	u	2	0	827.44	0.67	0.63
BFE_303	0	1	01	1	27	1.320313e+02	1209.jpg	1216.jpg	14	13	0	i	1	1	656.03	0.63	0.64
BFE_303	0	1	01	1	28	1.390226e+02	2110.jpg	2219.jpg	52	56	1	i	2	0	984.84	0.63	0.56
BFE_303	0	1	01	1	29	1.420260e+02	1101.jpg	1106.jpg	19	20	1	i	5	0	909.42	0.48	0.47
BFE_303	0	1	01	1	30	1.490337e+02	2212.jpg	2219.jpg	53	56	1	i	2	0	917.63	0.62	0.56
BFE_303	0	1	01	1	31	1.540226e+02	1214.jpg	1211.jpg	8	12	0	i	1	1	688.77	0.70	0.65
BFE_303	0	1	01	1	32	1.580272e+02	1104.jpg	1207.jpg	15	11	1	i	1	0	924.21	0.58	0.67
BFE_303	0	1	01	1	33	1.630328e+02	1110.jpg	1202.jpg	21	22	0	i	5	1	654.58	0.46	0.46
BFE_303	0	1	01	1	34	1.690229e+02	1214.jpg	1217.jpg	8	18	0	i	1	1	824.42	0.70	0.53
BFE_303	0	1	01	1	35	1.730273e+02	2214.jpg	2207.jpg	58	48	1	i	2	0	1076.05	0.55	0.68
BFE_303	0	1	01	1	36	1.760307e+02	1104.jpg	1214.jpg	15	8	1	i	1	0	728.67	0.58	0.70
BFE_303	0	1	01	1	37	1.790341e+02	2116.jpg	2215.jpg	59	61	1	i	6	0	877.25	0.53	0.49
BFE_303	0	1	01	1	38	1.820208e+02	2212.jpg	2217.jpg	53	57	1	u	2	1	698.58	0.62	0.55
BFE_303	0	1	01	1	39	1.860253e+02	2212.jpg	2208.jpg	53	54	1	i	2	0	1046.07	0.62	0.62
BFE_303	0	1	01	1	40	1.900298e+02	1204.jpg	1215.jpg	3	37	1	u	3	1	1137.55	0.81	0.24
BFE_303	0	1	01	1	41	1.960198e+02	2207.jpg	2110.jpg	48	52	0	i	2	1	1171.52	0.68	0.63
BFE_303	0	1	01	1	42	2.050299e+02	1208.jpg	1207.jpg	7	11	1	u	1	1	1009.43	0.71	0.67
BFE_303	0	1	01	1	43	2.080165e+02	2211.jpg	2214.jpg	49	58	0	u	2	0	966.93	0.67	0.55
BFE_303	0	1	01	1	44	2.120212e+02	2219.jpg	2204.jpg	56	55	0	u	2	0	930.22	0.56	0.61
