subjectID	scanner	order	block	run	trial	onsettime	ImageLeft	ImageRight	bidIndexLeft	bidIndexRight	IsleftGo	Response	PairType	Outcome	RT	bidLeft	bidRight
BFE_324	0	2	02	2	1	2.018866e+00	2106.jpg	2210.jpg	52	51	0	u	2	0	900.63	0.65	0.65
BFE_324	0	2	02	2	2	5.022246e+00	2210.jpg	2110.jpg	51	50	1	i	2	0	1177.25	0.65	0.65
BFE_324	0	2	02	2	3	9.009722e+00	1103.jpg	1109.jpg	16	12	1	i	1	0	717.78	0.54	0.60
BFE_324	0	2	02	2	4	1.501678e+01	2209.jpg	2201.jpg	48	53	1	u	2	1	990.72	0.69	0.62
BFE_324	0	2	02	2	5	2.102357e+01	2106.jpg	2212.jpg	52	54	0	i	2	1	1047.93	0.65	0.61
BFE_324	0	2	02	2	6	2.601241e+01	2219.jpg	2218.jpg	49	58	1	u	2	1	1219.09	0.68	0.55
BFE_324	0	2	02	2	7	3.001700e+01	1215.jpg	1214.jpg	15	11	0	u	1	0	1158.50	0.55	0.63
BFE_324	0	2	02	2	8	3.502253e+01	2217.jpg	2106.jpg	57	52	1	u	2	1	952.98	0.56	0.65
BFE_324	0	2	02	2	9	4.101257e+01	1118.jpg	1215.jpg	9	15	1	i	1	0	898.92	0.68	0.55
BFE_324	0	2	02	2	10	4.401593e+01	1118.jpg	1201.jpg	9	13	1	x	1	999	999000.00	0.68	0.58
BFE_324	0	2	02	2	11	4.701932e+01	2218.jpg	2205.jpg	58	56	0	i	2	1	828.17	0.55	0.58
BFE_324	0	2	02	2	12	5.102384e+01	1114.jpg	1201.jpg	17	13	1	i	1	0	951.65	0.53	0.58
BFE_324	0	2	02	2	13	5.601277e+01	2204.jpg	2203.jpg	61	62	1	i	6	0	1226.72	0.51	0.50
BFE_324	0	2	02	2	14	5.901618e+01	2112.jpg	2205.jpg	55	56	0	u	2	0	1191.31	0.60	0.58
BFE_324	0	2	02	2	15	6.201950e+01	1119.jpg	1112.jpg	21	22	1	i	5	0	1051.99	0.49	0.49
BFE_324	0	2	02	2	16	6.602401e+01	2205.jpg	2201.jpg	56	53	1	i	2	0	1047.48	0.58	0.62
BFE_324	0	2	02	2	17	8.002298e+01	2107.jpg	2111.jpg	77	43	0	i	4	1	1040.52	0.19	0.79
BFE_324	0	2	02	2	18	8.801536e+01	1208.jpg	1118.jpg	18	9	0	i	1	1	1160.14	0.53	0.68
BFE_324	0	2	02	2	19	9.402213e+01	1119.jpg	1203.jpg	21	19	1	i	5	0	1065.36	0.49	0.52
BFE_324	0	2	02	2	20	9.700844e+01	2106.jpg	2209.jpg	52	48	0	i	2	1	767.06	0.65	0.69
BFE_324	0	2	02	2	21	1.010133e+02	1104.jpg	1211.jpg	14	7	1	i	1	0	802.19	0.55	0.71
BFE_324	0	2	02	2	22	1.070200e+02	1109.jpg	1114.jpg	12	17	0	u	1	0	987.55	0.60	0.53
BFE_324	0	2	02	2	23	1.100233e+02	1109.jpg	1104.jpg	12	14	0	u	1	0	936.16	0.60	0.55
BFE_324	0	2	02	2	24	1.130097e+02	2112.jpg	2217.jpg	55	57	0	u	2	0	1397.80	0.60	0.56
BFE_324	0	2	02	2	25	1.160133e+02	1111.jpg	1104.jpg	10	14	0	u	1	0	786.15	0.66	0.55
BFE_324	0	2	02	2	26	1.230212e+02	1114.jpg	1111.jpg	17	10	1	i	1	0	690.27	0.53	0.66
BFE_324	0	2	02	2	27	1.260246e+02	1208.jpg	1214.jpg	18	11	0	i	1	1	966.92	0.53	0.63
BFE_324	0	2	02	2	28	1.290113e+02	2209.jpg	2218.jpg	48	58	1	u	2	1	1052.16	0.69	0.55
BFE_324	0	2	02	2	29	1.340170e+02	1217.jpg	1208.jpg	8	18	1	u	1	1	782.55	0.69	0.53
BFE_324	0	2	02	2	30	1.370202e+02	1219.jpg	1207.jpg	4	38	1	i	3	0	1083.26	0.80	0.21
BFE_324	0	2	02	2	31	1.410247e+02	1217.jpg	1109.jpg	8	12	1	i	1	0	886.78	0.69	0.60
BFE_324	0	2	02	2	32	1.470148e+02	2110.jpg	2217.jpg	50	57	0	u	2	0	1096.67	0.65	0.56
BFE_324	0	2	02	2	33	1.500182e+02	2110.jpg	2209.jpg	50	48	0	u	2	0	1053.30	0.65	0.69
BFE_324	0	2	02	2	34	1.570091e+02	2212.jpg	2214.jpg	54	47	1	i	2	0	1054.45	0.61	0.70
BFE_324	0	2	02	2	35	1.620149e+02	1217.jpg	1201.jpg	8	13	1	i	1	0	1344.58	0.69	0.58
BFE_324	0	2	02	2	36	1.660194e+02	1104.jpg	1208.jpg	14	18	1	u	1	1	1100.05	0.55	0.53
BFE_324	0	2	02	2	37	1.690228e+02	2218.jpg	2217.jpg	58	57	0	x	2	999	999000.00	0.55	0.56
BFE_324	0	2	02	2	38	1.720092e+02	1114.jpg	1208.jpg	17	18	1	u	1	1	1062.25	0.53	0.53
BFE_324	0	2	02	2	39	1.820207e+02	2103.jpg	2204.jpg	59	61	0	u	6	0	810.80	0.54	0.51
BFE_324	0	2	02	2	40	1.930164e+02	1211.jpg	1114.jpg	7	17	0	u	1	0	863.07	0.71	0.53
BFE_324	0	2	02	2	41	1.980220e+02	1120.jpg	1219.jpg	37	4	0	i	3	1	729.46	0.22	0.80
BFE_324	0	2	02	2	42	2.070155e+02	2201.jpg	2219.jpg	53	49	0	i	2	1	616.02	0.62	0.68
BFE_324	0	2	02	2	43	2.100187e+02	2201.jpg	2210.jpg	53	51	0	u	2	0	884.76	0.62	0.65
BFE_324	0	2	02	2	44	2.150244e+02	2120.jpg	2111.jpg	78	43	0	i	4	1	735.10	0.19	0.79
