subjectID	scanner	order	block	run	trial	onsettime	ImageLeft	ImageRight	bidIndexLeft	bidIndexRight	IsleftGo	Response	PairType	Outcome	RT	bidLeft	bidRight
BFE_354	0	2	01	2	1	2.018850e+00	2102.jpg	2118.jpg	53	56	0	i	2	1	948.87	0.61	0.57
BFE_354	0	2	01	2	2	8.008553e+00	2213.jpg	2219.jpg	55	51	0	u	2	0	735.16	0.57	0.68
BFE_354	0	2	01	2	3	1.101236e+01	2114.jpg	2115.jpg	54	58	1	i	2	0	1307.36	0.60	0.55
BFE_354	0	2	01	2	4	1.401562e+01	2218.jpg	2219.jpg	50	51	0	u	2	0	696.08	0.69	0.68
BFE_354	0	2	01	2	5	1.701902e+01	1104.jpg	1205.jpg	19	20	0	i	5	1	708.68	0.53	0.51
BFE_354	0	2	01	2	6	2.102351e+01	1217.jpg	1218.jpg	10	8	0	u	1	0	736.18	0.63	0.74
BFE_354	0	2	01	2	7	2.901573e+01	2102.jpg	2106.jpg	53	49	0	i	2	1	703.97	0.61	0.73
BFE_354	0	2	01	2	8	3.402150e+01	2103.jpg	2101.jpg	43	78	1	u	4	1	546.20	0.83	0.20
BFE_354	0	2	01	2	9	3.901027e+01	1104.jpg	1212.jpg	19	21	0	u	5	0	805.43	0.53	0.48
BFE_354	0	2	01	2	10	4.201364e+01	1207.jpg	1103.jpg	16	7	1	i	1	0	562.06	0.58	0.77
BFE_354	0	2	01	2	11	4.501701e+01	1211.jpg	1118.jpg	18	14	0	u	1	0	942.71	0.53	0.60
BFE_354	0	2	01	2	12	5.102376e+01	1109.jpg	1211.jpg	11	18	1	u	1	1	959.98	0.62	0.53
BFE_354	0	2	01	2	13	5.501160e+01	2109.jpg	2219.jpg	52	51	0	i	2	1	700.10	0.63	0.68
BFE_354	0	2	01	2	14	5.801497e+01	2214.jpg	2116.jpg	59	61	0	u	6	0	1424.73	0.53	0.51
BFE_354	0	2	01	2	15	6.302055e+01	1109.jpg	1217.jpg	11	10	1	i	1	0	747.17	0.62	0.63
BFE_354	0	2	01	2	16	7.001183e+01	1118.jpg	1208.jpg	14	13	1	u	1	1	627.91	0.60	0.61
BFE_354	0	2	01	2	17	7.301504e+01	1208.jpg	1218.jpg	13	8	0	u	1	0	696.67	0.61	0.74
BFE_354	0	2	01	2	18	8.200818e+01	2118.jpg	2115.jpg	56	58	1	i	2	0	847.52	0.57	0.55
BFE_354	0	2	01	2	19	8.501185e+01	1209.jpg	1204.jpg	17	15	1	u	1	1	747.84	0.54	0.59
BFE_354	0	2	01	2	20	9.101860e+01	1206.jpg	1121.jpg	9	12	1	u	1	1	685.09	0.68	0.62
BFE_354	0	2	01	2	21	9.602428e+01	2206.jpg	2101.jpg	44	78	1	i	4	0	767.42	0.81	0.20
BFE_354	0	2	01	2	22	9.901092e+01	2116.jpg	2211.jpg	61	62	1	i	6	0	1012.78	0.51	0.47
BFE_354	0	2	01	2	23	1.060187e+02	1103.jpg	1206.jpg	7	9	0	u	1	0	660.98	0.77	0.68
BFE_354	0	2	01	2	24	1.110244e+02	1103.jpg	1218.jpg	7	8	0	u	1	0	887.35	0.77	0.74
BFE_354	0	2	01	2	25	1.170144e+02	1204.jpg	1218.jpg	15	8	0	i	1	1	849.33	0.59	0.74
BFE_354	0	2	01	2	26	1.210189e+02	1206.jpg	1208.jpg	9	13	1	u	1	1	500.81	0.68	0.61
BFE_354	0	2	01	2	27	1.250234e+02	1218.jpg	1211.jpg	8	18	1	i	1	0	568.25	0.74	0.53
BFE_354	0	2	01	2	28	1.280101e+02	2201.jpg	2213.jpg	57	55	1	i	2	0	653.60	0.56	0.57
BFE_354	0	2	01	2	29	1.310134e+02	1216.jpg	1108.jpg	4	37	1	u	3	1	530.25	0.82	0.17
BFE_354	0	2	01	2	30	1.360190e+02	2106.jpg	2115.jpg	49	58	1	u	2	1	708.67	0.73	0.55
BFE_354	0	2	01	2	31	1.400236e+02	2114.jpg	2121.jpg	54	47	1	i	2	0	832.14	0.60	0.75
BFE_354	0	2	01	2	32	1.430102e+02	1103.jpg	1209.jpg	7	17	0	u	1	0	845.51	0.77	0.54
BFE_354	0	2	01	2	33	1.480159e+02	1103.jpg	1109.jpg	7	11	0	u	1	0	647.81	0.77	0.62
BFE_354	0	2	01	2	34	1.510192e+02	2102.jpg	2201.jpg	53	57	0	i	2	1	1124.54	0.61	0.56
BFE_354	0	2	01	2	35	1.550237e+02	2218.jpg	2201.jpg	50	57	0	u	2	0	968.00	0.69	0.56
BFE_354	0	2	01	2	36	1.680216e+02	1207.jpg	1208.jpg	16	13	1	i	1	0	994.11	0.58	0.61
BFE_354	0	2	01	2	37	1.740117e+02	2201.jpg	2115.jpg	57	58	1	u	2	1	1132.01	0.56	0.55
BFE_354	0	2	01	2	38	1.790173e+02	2118.jpg	2109.jpg	56	52	1	i	2	0	942.43	0.57	0.63
BFE_354	0	2	01	2	39	1.850241e+02	2218.jpg	2215.jpg	50	48	0	u	2	0	1127.66	0.69	0.74
BFE_354	0	2	01	2	40	1.880107e+02	2106.jpg	2218.jpg	49	50	1	u	2	1	893.00	0.73	0.69
BFE_354	0	2	01	2	41	1.920151e+02	1101.jpg	1216.jpg	38	4	0	i	3	1	1352.55	0.16	0.82
BFE_354	0	2	01	2	42	1.970208e+02	1118.jpg	1103.jpg	14	7	1	u	1	1	1146.94	0.60	0.77
BFE_354	0	2	01	2	43	2.030108e+02	2102.jpg	2219.jpg	53	51	0	i	2	1	780.86	0.61	0.68
BFE_354	0	2	01	2	44	2.070153e+02	2102.jpg	2114.jpg	53	54	0	u	2	0	1008.35	0.61	0.60
