subjectID	scanner	order	block	run	trial	onsettime	ImageLeft	ImageRight	bidIndexLeft	bidIndexRight	IsleftGo	Response	PairType	Outcome	RT	bidLeft	bidRight
BFE_318	0	2	02	2	1	2.018566e+00	2109.jpg	2118.jpg	51	53	1	i	2	0	756.93	0.71	0.69
BFE_318	0	2	02	2	2	8.025585e+00	2216.jpg	2212.jpg	56	58	1	u	2	1	845.93	0.62	0.58
BFE_318	0	2	02	2	3	1.102894e+01	1219.jpg	1209.jpg	17	18	1	u	1	1	1218.60	0.56	0.55
BFE_318	0	2	02	2	4	1.403229e+01	2109.jpg	2121.jpg	51	47	1	x	2	999	999000.00	0.71	0.74
BFE_318	0	2	02	2	5	1.701902e+01	1213.jpg	1209.jpg	11	18	1	u	1	1	996.49	0.61	0.55
BFE_318	0	2	02	2	6	2.102349e+01	1111.jpg	1120.jpg	22	21	0	i	5	1	624.04	0.53	0.53
BFE_318	0	2	02	2	7	2.903246e+01	2105.jpg	2212.jpg	49	58	1	u	2	1	879.05	0.72	0.58
BFE_318	0	2	02	2	8	3.402145e+01	2119.jpg	2217.jpg	62	60	0	u	6	0	906.08	0.53	0.56
BFE_318	0	2	02	2	9	3.902701e+01	1102.jpg	1215.jpg	10	14	0	i	1	1	724.52	0.66	0.60
BFE_318	0	2	02	2	10	4.203041e+01	1113.jpg	1116.jpg	12	8	0	u	1	0	1361.12	0.61	0.67
BFE_318	0	2	02	2	11	4.505037e+01	2118.jpg	2205.jpg	53	54	0	u	2	0	933.12	0.69	0.67
BFE_318	0	2	02	2	12	5.102377e+01	1215.jpg	1209.jpg	14	18	1	i	1	0	623.75	0.60	0.55
BFE_318	0	2	02	2	13	5.502826e+01	2211.jpg	2115.jpg	59	61	0	i	6	1	955.24	0.57	0.53
BFE_318	0	2	02	2	14	5.803160e+01	2101.jpg	2216.jpg	52	56	0	i	2	1	711.92	0.70	0.62
BFE_318	0	2	02	2	15	6.302059e+01	2109.jpg	2212.jpg	51	58	1	u	2	1	1042.92	0.71	0.58
BFE_318	0	2	02	2	16	7.002838e+01	1218.jpg	1121.jpg	16	7	1	u	1	1	1067.15	0.56	0.67
BFE_318	0	2	02	2	17	7.303172e+01	1214.jpg	1104.jpg	3	37	1	i	3	0	1135.79	0.74	0.24
BFE_318	0	2	02	2	18	8.202524e+01	2102.jpg	2216.jpg	55	56	0	i	2	1	766.28	0.64	0.62
BFE_318	0	2	02	2	19	8.502855e+01	1111.jpg	1207.jpg	22	20	0	u	5	0	994.96	0.53	0.54
BFE_318	0	2	02	2	20	9.101839e+01	2106.jpg	2102.jpg	48	55	1	i	2	0	1317.12	0.72	0.64
BFE_318	0	2	02	2	21	9.602427e+01	1110.jpg	1213.jpg	15	11	0	i	1	1	975.23	0.58	0.61
BFE_318	0	2	02	2	22	9.903003e+01	2106.jpg	2118.jpg	48	53	1	i	2	0	657.48	0.72	0.69
BFE_318	0	2	02	2	23	1.060188e+02	1116.jpg	1102.jpg	8	10	1	u	1	1	828.67	0.67	0.66
BFE_318	0	2	02	2	24	1.110244e+02	2106.jpg	2103.jpg	48	50	1	i	2	0	847.19	0.72	0.71
BFE_318	0	2	02	2	25	1.170311e+02	1121.jpg	1219.jpg	7	17	0	u	1	0	1168.39	0.67	0.56
BFE_318	0	2	02	2	26	1.210186e+02	1215.jpg	1115.jpg	14	13	1	u	1	1	1252.90	0.60	0.61
BFE_318	0	2	02	2	27	1.250233e+02	2105.jpg	2118.jpg	49	53	1	i	2	0	640.17	0.72	0.69
BFE_318	0	2	02	2	28	1.280268e+02	2102.jpg	2201.jpg	55	57	0	i	2	1	940.74	0.64	0.60
BFE_318	0	2	02	2	29	1.310300e+02	2118.jpg	2201.jpg	53	57	0	i	2	1	601.47	0.69	0.60
BFE_318	0	2	02	2	30	1.360190e+02	1115.jpg	1218.jpg	13	16	0	i	1	1	964.54	0.61	0.56
BFE_318	0	2	02	2	31	1.400235e+02	2118.jpg	2216.jpg	53	56	0	i	2	1	736.01	0.69	0.62
BFE_318	0	2	02	2	32	1.430269e+02	1110.jpg	1215.jpg	15	14	0	i	1	1	772.64	0.58	0.60
BFE_318	0	2	02	2	33	1.480325e+02	1215.jpg	1113.jpg	14	12	1	i	1	0	815.08	0.60	0.61
BFE_318	0	2	02	2	34	1.510192e+02	1218.jpg	1209.jpg	16	18	1	u	1	1	1140.35	0.56	0.55
BFE_318	0	2	02	2	35	1.550237e+02	1115.jpg	1219.jpg	13	17	0	i	1	1	591.84	0.61	0.56
BFE_318	0	2	02	2	36	1.680215e+02	2105.jpg	2102.jpg	49	55	1	u	2	1	1241.98	0.72	0.64
BFE_318	0	2	02	2	37	1.740283e+02	1104.jpg	1208.jpg	37	4	0	u	3	0	651.19	0.24	0.74
BFE_318	0	2	02	2	38	1.790339e+02	1121.jpg	1116.jpg	7	8	0	i	1	1	661.63	0.67	0.67
BFE_318	0	2	02	2	39	1.850239e+02	2109.jpg	2102.jpg	51	55	1	i	2	0	975.59	0.71	0.64
BFE_318	0	2	02	2	40	1.880273e+02	1216.jpg	1110.jpg	9	15	1	i	1	0	988.17	0.66	0.58
BFE_318	0	2	02	2	41	1.920318e+02	2208.jpg	2120.jpg	77	43	0	i	4	1	863.73	0.23	0.82
BFE_318	0	2	02	2	42	1.970207e+02	1213.jpg	1115.jpg	11	13	1	i	1	0	770.80	0.61	0.61
BFE_318	0	2	02	2	43	2.030274e+02	2208.jpg	2213.jpg	77	44	0	i	4	1	668.07	0.23	0.81
BFE_318	0	2	02	2	44	2.070320e+02	2212.jpg	2201.jpg	58	57	0	u	2	0	1303.55	0.58	0.60
