subjectID	scanner	order	block	run	trial	onsettime	ImageLeft	ImageRight	bidIndexLeft	bidIndexRight	IsleftGo	Response	PairType	Outcome	RT	bidLeft	bidRight
BFE_310	0	2	02	1	1	2.018841e+00	2215.jpg	2209.jpg	52	56	0	u	2	0	1179.96	0.71	0.68
BFE_310	0	2	02	1	2	5.022288e+00	1209.jpg	1218.jpg	18	8	0	i	1	1	952.53	0.54	0.69
BFE_310	0	2	02	1	3	9.026679e+00	1201.jpg	1218.jpg	12	8	0	u	1	0	980.12	0.61	0.69
BFE_310	0	2	02	1	4	1.503343e+01	1218.jpg	1111.jpg	8	15	1	u	1	1	1029.38	0.69	0.56
BFE_310	0	2	02	1	5	2.102344e+01	2218.jpg	2216.jpg	48	55	1	i	2	0	1047.36	0.79	0.68
BFE_310	0	2	02	1	6	2.602905e+01	1116.jpg	1208.jpg	37	4	0	i	3	1	1089.74	0.24	0.77
BFE_310	0	2	02	1	7	3.003368e+01	1216.jpg	1209.jpg	9	18	1	u	1	1	1005.11	0.69	0.54
BFE_310	0	2	02	1	8	3.502261e+01	1111.jpg	1216.jpg	15	9	0	i	1	1	856.19	0.56	0.69
BFE_310	0	2	02	1	9	4.102922e+01	2110.jpg	2205.jpg	57	50	1	i	2	0	1345.59	0.68	0.75
BFE_310	0	2	02	1	10	4.403257e+01	2102.jpg	2209.jpg	58	56	0	x	2	999	999000.00	0.64	0.68
BFE_310	0	2	02	1	11	4.701931e+01	2202.jpg	2213.jpg	51	53	1	i	2	0	1131.49	0.75	0.71
BFE_310	0	2	02	1	12	5.102383e+01	2212.jpg	2205.jpg	54	50	1	u	2	1	1094.97	0.70	0.75
BFE_310	0	2	02	1	13	5.602942e+01	2216.jpg	2209.jpg	55	56	0	u	2	0	977.38	0.68	0.68
BFE_310	0	2	02	1	14	5.903274e+01	2101.jpg	2117.jpg	61	62	1	x	6	999	999000.00	0.59	0.59
BFE_310	0	2	02	1	15	6.201946e+01	1102.jpg	1107.jpg	20	22	1	u	5	1	1067.34	0.53	0.44
BFE_310	0	2	02	1	16	6.602387e+01	2215.jpg	2120.jpg	52	49	0	u	2	0	942.94	0.71	0.75
BFE_310	0	2	02	1	17	8.002295e+01	1113.jpg	1114.jpg	7	16	0	i	1	1	1191.87	0.70	0.56
BFE_310	0	2	02	1	18	8.803190e+01	2216.jpg	2212.jpg	55	54	0	u	2	0	894.90	0.68	0.70
BFE_310	0	2	02	1	19	9.402200e+01	1103.jpg	1216.jpg	10	9	0	i	1	1	920.80	0.68	0.69
BFE_310	0	2	02	1	20	9.702532e+01	1214.jpg	1208.jpg	38	4	0	i	3	1	773.49	0.22	0.77
BFE_310	0	2	02	1	21	1.010298e+02	1120.jpg	1201.jpg	14	12	1	i	1	0	1153.04	0.57	0.61
BFE_310	0	2	02	1	22	1.070198e+02	2107.jpg	2211.jpg	77	44	0	i	4	1	923.01	0.26	0.87
BFE_310	0	2	02	1	23	1.100233e+02	2121.jpg	2107.jpg	43	77	1	u	4	1	1047.49	0.92	0.26
BFE_310	0	2	02	1	24	1.130265e+02	2202.jpg	2215.jpg	51	52	1	i	2	0	1060.31	0.75	0.71
BFE_310	0	2	02	1	25	1.160300e+02	1206.jpg	1209.jpg	17	18	1	u	1	1	1032.82	0.54	0.54
BFE_310	0	2	02	1	26	1.230210e+02	1102.jpg	1118.jpg	20	19	1	u	5	1	1041.76	0.53	0.53
BFE_310	0	2	02	1	27	1.260245e+02	2212.jpg	2215.jpg	54	52	1	i	2	0	982.29	0.70	0.71
BFE_310	0	2	02	1	28	1.290278e+02	2209.jpg	2205.jpg	56	50	1	u	2	1	1066.94	0.68	0.75
BFE_310	0	2	02	1	29	1.340334e+02	2215.jpg	2110.jpg	52	57	0	u	2	0	933.36	0.71	0.68
BFE_310	0	2	02	1	30	1.370201e+02	1216.jpg	1113.jpg	9	7	1	u	1	1	850.68	0.69	0.70
BFE_310	0	2	02	1	31	1.410246e+02	1115.jpg	1204.jpg	13	11	0	x	1	999	999000.00	0.58	0.65
BFE_310	0	2	02	1	32	1.470314e+02	1103.jpg	1204.jpg	10	11	0	i	1	1	1111.43	0.68	0.65
BFE_310	0	2	02	1	33	1.500346e+02	2102.jpg	2202.jpg	58	51	0	u	2	0	1412.16	0.64	0.75
BFE_310	0	2	02	1	34	1.570259e+02	2216.jpg	2120.jpg	55	49	0	u	2	0	900.92	0.68	0.75
BFE_310	0	2	02	1	35	1.620315e+02	1201.jpg	1114.jpg	12	16	0	u	1	0	783.33	0.61	0.56
BFE_310	0	2	02	1	36	1.660189e+02	1120.jpg	1103.jpg	14	10	1	i	1	0	923.91	0.57	0.68
BFE_310	0	2	02	1	37	1.690226e+02	2101.jpg	2114.jpg	61	59	1	i	6	0	1056.16	0.59	0.62
BFE_310	0	2	02	1	38	1.720260e+02	1120.jpg	1115.jpg	14	13	1	i	1	0	1252.80	0.57	0.58
BFE_310	0	2	02	1	39	1.820205e+02	2120.jpg	2217.jpg	49	47	1	i	2	0	1090.31	0.75	0.81
BFE_310	0	2	02	1	40	1.930328e+02	1111.jpg	1120.jpg	15	14	0	u	1	0	1118.01	0.56	0.57
BFE_310	0	2	02	1	41	1.980218e+02	2110.jpg	2217.jpg	57	47	1	u	2	1	1105.02	0.68	0.81
BFE_310	0	2	02	1	42	2.070318e+02	2216.jpg	2202.jpg	55	51	0	u	2	0	966.96	0.68	0.75
BFE_310	0	2	02	1	43	2.100183e+02	1114.jpg	1103.jpg	16	10	1	i	1	0	1060.55	0.56	0.68
BFE_310	0	2	02	1	44	2.150242e+02	1209.jpg	1204.jpg	18	11	0	u	1	0	934.59	0.54	0.65
