subjectID	scanner	order	block	run	trial	onsettime	ImageLeft	ImageRight	bidIndexLeft	bidIndexRight	IsleftGo	Response	PairType	Outcome	RT	bidLeft	bidRight
BFE_348	0	2	02	2	1	2.018788e+00	2112.jpg	2201.jpg	78	43	0	i	4	1	888.06	0.22	0.86
BFE_348	0	2	02	2	2	5.022247e+00	2204.jpg	2217.jpg	55	48	0	i	2	1	612.60	0.66	0.75
BFE_348	0	2	02	2	3	1.203017e+01	2111.jpg	2101.jpg	60	62	1	i	6	0	844.69	0.53	0.52
BFE_348	0	2	02	2	4	1.601782e+01	1114.jpg	1105.jpg	22	20	0	i	5	1	753.03	0.46	0.48
BFE_348	0	2	02	2	5	2.102350e+01	1218.jpg	1209.jpg	17	18	1	i	1	0	627.35	0.56	0.50
BFE_348	0	2	02	2	6	2.502801e+01	1212.jpg	1203.jpg	11	12	1	i	1	0	750.84	0.69	0.68
BFE_348	0	2	02	2	7	2.901575e+01	2101.jpg	2106.jpg	62	61	0	i	6	1	1211.09	0.52	0.53
BFE_348	0	2	02	2	8	3.201907e+01	2215.jpg	2214.jpg	50	49	0	i	2	1	719.77	0.72	0.73
BFE_348	0	2	02	2	9	3.502248e+01	2202.jpg	2217.jpg	52	48	0	i	2	1	788.36	0.69	0.75
BFE_348	0	2	02	2	10	4.002807e+01	2214.jpg	2204.jpg	49	55	1	i	2	0	606.77	0.73	0.66
BFE_348	0	2	02	2	11	4.401587e+01	1219.jpg	1209.jpg	8	18	1	u	1	1	1130.98	0.77	0.50
BFE_348	0	2	02	2	12	4.902145e+01	2206.jpg	2202.jpg	56	52	1	i	2	0	997.39	0.64	0.69
BFE_348	0	2	02	2	13	5.302594e+01	1215.jpg	1210.jpg	7	14	0	i	1	1	800.91	0.77	0.64
BFE_348	0	2	02	2	14	5.602930e+01	1201.jpg	1215.jpg	9	7	1	u	1	1	1141.54	0.76	0.77
BFE_348	0	2	02	2	15	6.001722e+01	2214.jpg	2202.jpg	49	52	1	u	2	1	1089.66	0.73	0.69
BFE_348	0	2	02	2	16	6.602382e+01	2213.jpg	2217.jpg	58	48	0	i	2	1	979.03	0.61	0.75
BFE_348	0	2	02	2	17	7.301501e+01	2213.jpg	2205.jpg	58	51	0	i	2	1	915.83	0.61	0.71
BFE_348	0	2	02	2	18	7.601835e+01	1213.jpg	1211.jpg	13	16	0	i	1	1	672.50	0.67	0.60
BFE_348	0	2	02	2	19	8.102395e+01	1104.jpg	1217.jpg	37	3	0	i	3	1	506.90	0.22	0.81
BFE_348	0	2	02	2	20	8.602963e+01	1211.jpg	1206.jpg	16	15	1	x	1	999	999000.00	0.60	0.62
BFE_348	0	2	02	2	21	9.201966e+01	1218.jpg	1204.jpg	17	10	1	i	1	0	535.18	0.56	0.75
BFE_348	0	2	02	2	22	9.602410e+01	1114.jpg	1207.jpg	22	21	0	i	5	1	602.75	0.46	0.48
BFE_348	0	2	02	2	23	1.010297e+02	2214.jpg	2211.jpg	49	47	1	x	2	999	999000.00	0.73	0.75
BFE_348	0	2	02	2	24	1.080209e+02	1215.jpg	1219.jpg	7	8	0	i	1	1	485.98	0.77	0.77
BFE_348	0	2	02	2	25	1.130265e+02	2209.jpg	2202.jpg	54	52	1	i	2	0	520.34	0.68	0.69
BFE_348	0	2	02	2	26	1.180154e+02	2116.jpg	2207.jpg	77	44	0	i	4	1	603.40	0.25	0.85
BFE_348	0	2	02	2	27	1.210188e+02	1219.jpg	1206.jpg	8	15	1	i	1	0	464.02	0.77	0.62
BFE_348	0	2	02	2	28	1.240222e+02	1209.jpg	1212.jpg	18	11	0	i	1	1	924.67	0.50	0.69
BFE_348	0	2	02	2	29	1.300290e+02	2217.jpg	2211.jpg	48	47	1	u	2	1	813.89	0.75	0.75
BFE_348	0	2	02	2	30	1.340167e+02	2205.jpg	2215.jpg	51	50	1	u	2	1	850.19	0.71	0.72
BFE_348	0	2	02	2	31	1.430267e+02	2208.jpg	2206.jpg	53	56	0	u	2	0	736.13	0.68	0.64
BFE_348	0	2	02	2	32	1.480158e+02	1219.jpg	1213.jpg	8	13	1	u	1	1	651.08	0.77	0.67
BFE_348	0	2	02	2	33	1.570257e+02	1215.jpg	1212.jpg	7	11	0	u	1	0	913.09	0.77	0.69
BFE_348	0	2	02	2	34	1.600291e+02	1210.jpg	1203.jpg	14	12	1	i	1	0	901.73	0.64	0.68
BFE_348	0	2	02	2	35	1.640170e+02	1218.jpg	1213.jpg	17	13	1	i	1	0	961.87	0.56	0.67
BFE_348	0	2	02	2	36	1.700236e+02	1218.jpg	1203.jpg	17	12	1	i	1	0	859.25	0.56	0.68
BFE_348	0	2	02	2	37	1.740282e+02	2209.jpg	2204.jpg	54	55	1	u	2	1	990.68	0.68	0.66
BFE_348	0	2	02	2	38	1.810194e+02	2211.jpg	2210.jpg	47	57	0	u	2	0	1167.48	0.75	0.64
BFE_348	0	2	02	2	39	1.870260e+02	1204.jpg	1219.jpg	10	8	0	i	1	1	1320.83	0.75	0.77
BFE_348	0	2	02	2	40	1.980217e+02	2208.jpg	2205.jpg	53	51	0	i	2	1	829.23	0.68	0.71
BFE_348	0	2	02	2	41	2.030273e+02	1113.jpg	1214.jpg	38	4	0	i	3	1	783.56	0.17	0.79
BFE_348	0	2	02	2	42	2.090173e+02	2206.jpg	2215.jpg	56	50	1	i	2	0	825.53	0.64	0.72
BFE_348	0	2	02	2	43	2.200296e+02	1204.jpg	1211.jpg	10	16	0	i	1	1	605.23	0.75	0.60
BFE_348	0	2	02	2	44	2.230163e+02	2210.jpg	2213.jpg	57	58	1	i	2	0	674.51	0.64	0.61
