subjectID	scanner	order	block	run	trial	onsettime	ImageLeft	ImageRight	bidIndexLeft	bidIndexRight	IsleftGo	Response	PairType	Outcome	RT	bidLeft	bidRight
BFE_314	0	2	01	2	1	2.018862e+00	1115.jpg	1106.jpg	11	10	1	x	1	999	999000.00	0.70	0.70
BFE_314	0	2	01	2	2	8.023815e+00	2121.jpg	2107.jpg	50	57	0	i	2	1	925.16	0.68	0.55
BFE_314	0	2	01	2	3	1.102713e+01	2120.jpg	2111.jpg	53	56	0	u	2	0	1033.84	0.61	0.56
BFE_314	0	2	01	2	4	1.401392e+01	1204.jpg	1121.jpg	17	7	1	i	1	0	831.04	0.52	0.73
BFE_314	0	2	01	2	5	1.701718e+01	1209.jpg	1204.jpg	18	17	0	i	1	1	1299.80	0.50	0.52
BFE_314	0	2	01	2	6	2.102163e+01	2203.jpg	2113.jpg	78	43	0	i	4	1	871.38	0.17	0.82
BFE_314	0	2	01	2	7	2.901404e+01	2209.jpg	2105.jpg	60	59	1	i	6	0	1078.93	0.53	0.53
BFE_314	0	2	01	2	8	3.401955e+01	1209.jpg	1115.jpg	18	11	0	i	1	1	793.41	0.50	0.70
BFE_314	0	2	01	2	9	3.902524e+01	1105.jpg	1205.jpg	16	13	1	u	1	1	819.72	0.55	0.67
BFE_314	0	2	01	2	10	4.201161e+01	1106.jpg	1110.jpg	10	8	0	i	1	1	777.36	0.70	0.72
BFE_314	0	2	01	2	11	4.501518e+01	2205.jpg	2111.jpg	47	56	0	i	2	1	837.80	0.74	0.56
BFE_314	0	2	01	2	12	5.102193e+01	2218.jpg	2106.jpg	77	44	0	i	4	1	775.06	0.20	0.78
BFE_314	0	2	01	2	13	5.502645e+01	2205.jpg	2115.jpg	47	51	0	i	2	1	650.51	0.74	0.64
BFE_314	0	2	01	2	14	5.801306e+01	2109.jpg	2120.jpg	54	53	1	u	2	1	935.95	0.59	0.61
BFE_314	0	2	01	2	15	6.301869e+01	2115.jpg	2120.jpg	51	53	1	i	2	0	698.25	0.64	0.61
BFE_314	0	2	01	2	16	7.002658e+01	1120.jpg	1103.jpg	12	9	0	i	1	1	794.37	0.68	0.71
BFE_314	0	2	01	2	17	7.301325e+01	2107.jpg	2205.jpg	57	47	1	u	2	1	967.73	0.55	0.74
BFE_314	0	2	01	2	18	8.202329e+01	2111.jpg	2102.jpg	56	55	1	u	2	1	1069.67	0.56	0.57
BFE_314	0	2	01	2	19	8.502672e+01	2206.jpg	2121.jpg	49	50	1	u	2	1	922.23	0.69	0.68
BFE_314	0	2	01	2	20	9.101674e+01	1208.jpg	1107.jpg	19	21	0	i	5	1	1084.23	0.49	0.48
BFE_314	0	2	01	2	21	9.602233e+01	1209.jpg	1110.jpg	18	8	0	i	1	1	678.63	0.50	0.72
BFE_314	0	2	01	2	22	9.902571e+01	1110.jpg	1120.jpg	8	12	1	i	1	0	779.25	0.72	0.68
BFE_314	0	2	01	2	23	1.060169e+02	1118.jpg	1216.jpg	37	3	0	i	3	1	1052.06	0.20	0.77
BFE_314	0	2	01	2	24	1.110225e+02	1105.jpg	1106.jpg	16	10	1	i	1	0	798.51	0.55	0.70
BFE_314	0	2	01	2	25	1.170123e+02	2104.jpg	2120.jpg	48	53	1	i	2	0	912.66	0.71	0.61
BFE_314	0	2	01	2	26	1.210170e+02	2104.jpg	2102.jpg	48	55	1	u	2	1	811.95	0.71	0.57
BFE_314	0	2	01	2	27	1.250215e+02	1201.jpg	1203.jpg	4	38	1	u	3	1	823.49	0.75	0.19
BFE_314	0	2	01	2	28	1.280249e+02	1115.jpg	1205.jpg	11	13	1	u	1	1	804.05	0.70	0.67
BFE_314	0	2	01	2	29	1.310113e+02	1205.jpg	1104.jpg	13	14	0	u	1	0	889.67	0.67	0.64
BFE_314	0	2	01	2	30	1.360172e+02	2120.jpg	2107.jpg	53	57	0	u	2	0	1115.81	0.61	0.55
BFE_314	0	2	01	2	31	1.400216e+02	1115.jpg	1114.jpg	11	15	1	u	1	1	719.38	0.70	0.55
BFE_314	0	2	01	2	32	1.430251e+02	2205.jpg	2104.jpg	47	48	0	i	2	1	907.90	0.74	0.71
BFE_314	0	2	01	2	33	1.480140e+02	2102.jpg	2115.jpg	55	51	0	i	2	1	887.01	0.57	0.64
BFE_314	0	2	01	2	34	1.510173e+02	1121.jpg	1103.jpg	7	9	0	i	1	1	947.73	0.73	0.71
BFE_314	0	2	01	2	35	1.550219e+02	1103.jpg	1106.jpg	9	10	1	u	1	1	951.10	0.71	0.70
BFE_314	0	2	01	2	36	1.680197e+02	2104.jpg	2103.jpg	48	58	1	u	2	1	1081.27	0.71	0.54
BFE_314	0	2	01	2	37	1.740265e+02	2205.jpg	2109.jpg	47	54	0	u	2	0	1178.51	0.74	0.59
BFE_314	0	2	01	2	38	1.790154e+02	1204.jpg	1120.jpg	17	12	1	i	1	0	869.58	0.52	0.68
BFE_314	0	2	01	2	39	1.850220e+02	2102.jpg	2109.jpg	55	54	0	i	2	1	1094.92	0.57	0.59
BFE_314	0	2	01	2	40	1.880254e+02	1114.jpg	1103.jpg	15	9	0	i	1	1	883.56	0.55	0.71
BFE_314	0	2	01	2	41	1.920133e+02	2115.jpg	2121.jpg	51	50	1	u	2	1	959.73	0.64	0.68
BFE_314	0	2	01	2	42	1.970189e+02	1103.jpg	1205.jpg	9	13	1	u	1	1	730.07	0.71	0.67
BFE_314	0	2	01	2	43	2.030256e+02	2114.jpg	2119.jpg	62	61	0	u	6	0	1155.39	0.50	0.51
BFE_314	0	2	01	2	44	2.070134e+02	1107.jpg	1109.jpg	21	22	1	u	5	1	1079.55	0.48	0.48
