subjectID	scanner	order	block	run	trial	onsettime	ImageLeft	ImageRight	bidIndexLeft	bidIndexRight	IsleftGo	Response	PairType	Outcome	RT	bidLeft	bidRight
BFE_312	0	2	02	1	1	2.018738e+00	1206.jpg	1103.jpg	15	8	0	i	1	1	906.36	0.63	0.75
BFE_312	0	2	02	1	2	8.025463e+00	2106.jpg	2208.jpg	55	56	0	i	2	1	1051.64	0.59	0.58
BFE_312	0	2	02	1	3	1.102881e+01	2202.jpg	2121.jpg	57	53	1	i	2	0	928.26	0.58	0.62
BFE_312	0	2	02	1	4	1.401548e+01	2118.jpg	2219.jpg	59	61	0	i	6	1	829.60	0.55	0.53
BFE_312	0	2	02	1	5	1.701886e+01	2106.jpg	2203.jpg	55	54	0	u	2	0	1106.23	0.59	0.59
BFE_312	0	2	02	1	6	2.102331e+01	2121.jpg	2205.jpg	53	51	0	i	2	1	517.77	0.62	0.68
BFE_312	0	2	02	1	7	2.901562e+01	1215.jpg	1113.jpg	17	12	1	i	1	0	981.46	0.61	0.65
BFE_312	0	2	02	1	8	3.402117e+01	2208.jpg	2204.jpg	56	52	1	i	2	0	1031.91	0.58	0.67
BFE_312	0	2	02	1	9	3.902689e+01	1202.jpg	1206.jpg	16	15	1	i	1	0	954.20	0.62	0.63
BFE_312	0	2	02	1	10	4.201354e+01	1113.jpg	1204.jpg	12	11	0	i	1	1	983.59	0.65	0.69
BFE_312	0	2	02	1	11	4.501687e+01	1212.jpg	1210.jpg	20	22	1	i	5	0	1332.21	0.55	0.47
BFE_312	0	2	02	1	12	5.102359e+01	2205.jpg	2206.jpg	51	58	1	u	2	1	1189.49	0.68	0.58
BFE_312	0	2	02	1	13	5.502807e+01	1113.jpg	1202.jpg	12	16	0	i	1	1	985.03	0.65	0.62
BFE_312	0	2	02	1	14	5.801480e+01	1214.jpg	1202.jpg	7	16	0	u	1	0	1198.30	0.76	0.62
BFE_312	0	2	02	1	15	6.302034e+01	1205.jpg	1113.jpg	9	12	1	i	1	0	776.75	0.74	0.65
BFE_312	0	2	02	1	16	7.002830e+01	2106.jpg	2202.jpg	55	57	0	u	2	0	1144.81	0.59	0.58
BFE_312	0	2	02	1	17	7.301487e+01	1215.jpg	1214.jpg	17	7	1	i	1	0	806.21	0.61	0.76
BFE_312	0	2	02	1	18	8.202497e+01	1103.jpg	1113.jpg	8	12	1	i	1	0	756.12	0.75	0.65
BFE_312	0	2	02	1	19	8.502843e+01	2202.jpg	2204.jpg	57	52	1	i	2	0	1336.65	0.58	0.67
BFE_312	0	2	02	1	20	9.101843e+01	2202.jpg	2110.jpg	57	47	1	i	2	0	842.65	0.58	0.75
BFE_312	0	2	02	1	21	9.602411e+01	2206.jpg	2203.jpg	58	54	0	u	2	0	996.99	0.58	0.59
BFE_312	0	2	02	1	22	9.902736e+01	1203.jpg	1205.jpg	18	9	0	i	1	1	1185.72	0.59	0.74
BFE_312	0	2	02	1	23	1.060185e+02	2208.jpg	2121.jpg	56	53	1	i	2	0	890.56	0.58	0.62
BFE_312	0	2	02	1	24	1.110242e+02	2103.jpg	2113.jpg	62	60	0	i	6	1	332.90	0.51	0.54
BFE_312	0	2	02	1	25	1.170142e+02	2106.jpg	2215.jpg	55	49	0	i	2	1	830.93	0.59	0.73
BFE_312	0	2	02	1	26	1.210187e+02	2213.jpg	2116.jpg	43	78	1	u	4	1	954.40	0.80	0.19
BFE_312	0	2	02	1	27	1.250233e+02	1218.jpg	1120.jpg	3	37	1	u	3	1	989.83	0.79	0.22
BFE_312	0	2	02	1	28	1.280266e+02	1121.jpg	1103.jpg	13	8	0	i	1	1	802.44	0.64	0.75
BFE_312	0	2	02	1	29	1.310130e+02	2110.jpg	2205.jpg	47	51	0	i	2	1	776.08	0.75	0.68
BFE_312	0	2	02	1	30	1.360188e+02	2218.jpg	2106.jpg	48	55	1	i	2	0	1418.26	0.74	0.59
BFE_312	0	2	02	1	31	1.400233e+02	2218.jpg	2121.jpg	48	53	1	i	2	0	1053.76	0.74	0.62
BFE_312	0	2	02	1	32	1.430267e+02	1121.jpg	1205.jpg	13	9	0	i	1	1	674.40	0.64	0.74
BFE_312	0	2	02	1	33	1.480156e+02	1211.jpg	1214.jpg	14	7	1	i	1	0	821.46	0.63	0.76
BFE_312	0	2	02	1	34	1.510191e+02	1121.jpg	1215.jpg	13	17	0	i	1	1	1330.02	0.64	0.61
BFE_312	0	2	02	1	35	1.550234e+02	1219.jpg	1120.jpg	4	37	1	u	3	1	981.65	0.78	0.22
BFE_312	0	2	02	1	36	1.680213e+02	1210.jpg	1207.jpg	22	21	0	i	5	1	1039.75	0.47	0.52
BFE_312	0	2	02	1	37	1.740111e+02	2205.jpg	2207.jpg	51	50	1	u	2	1	865.99	0.68	0.70
BFE_312	0	2	02	1	38	1.790170e+02	2218.jpg	2204.jpg	48	52	1	i	2	0	620.08	0.74	0.67
BFE_312	0	2	02	1	39	1.850237e+02	2114.jpg	2211.jpg	77	44	0	i	4	1	733.37	0.20	0.80
BFE_312	0	2	02	1	40	1.880272e+02	1209.jpg	1205.jpg	10	9	0	i	1	1	769.90	0.71	0.74
BFE_312	0	2	02	1	41	1.920149e+02	1209.jpg	1211.jpg	10	14	0	i	1	1	638.15	0.71	0.63
BFE_312	0	2	02	1	42	1.970206e+02	1211.jpg	1113.jpg	14	12	1	i	1	0	632.48	0.63	0.65
BFE_312	0	2	02	1	43	2.030273e+02	1209.jpg	1202.jpg	10	16	0	u	1	0	1113.76	0.71	0.62
BFE_312	0	2	02	1	44	2.070150e+02	2215.jpg	2206.jpg	49	58	1	i	2	0	1166.05	0.73	0.58
