subjectID	scanner	order	block	run	trial	onsettime	ImageLeft	ImageRight	bidIndexLeft	bidIndexRight	IsleftGo	Response	PairType	Outcome	RT	bidLeft	bidRight	
BMI_bs_120	 4	 2	 02	 2	 1	 2.018456e+00	 Mentos.bmp	 Tortit.bmp	 44	 49	 0	 u	 2	 0	 1361.52	 0.80	 0.34	 
BMI_bs_120	 4	 2	 02	 2	 2	 7.007374e+00	 TapuchipsCrunch.bmp	 Egozi.bmp	 22	 21	 1	 u	 1	 1	 861.51	 1.79	 1.83	 
BMI_bs_120	 4	 2	 02	 2	 3	 1.501634e+01	 ChocolateParaMilk3.bmp	 ClickBalls5.bmp	 16	 7	 1	 u	 1	 1	 806.69	 2.05	 2.21	 
BMI_bs_120	 4	 2	 02	 2	 4	 1.801970e+01	 Cheetos.bmp	 DoritosSourSpicy.bmp	 51	 53	 1	 i	 2	 0	 829.70	 0.29	 0.28	 
BMI_bs_120	 4	 2	 02	 2	 5	 2.501086e+01	 GumiSnakes3.bmp	 BambaSweet.bmp	 48	 52	 1	 u	 2	 1	 1398.89	 0.38	 0.28	 
BMI_bs_120	 4	 2	 02	 2	 6	 2.801423e+01	 Snickers.bmp	 Egozi.bmp	 8	 21	 1	 u	 1	 1	 960.61	 2.19	 1.83	 
BMI_bs_120	 4	 2	 02	 2	 7	 3.900986e+01	 DoritosSourSpicy.bmp	 GumiWine2.bmp	 53	 54	 0	 u	 2	 0	 877.98	 0.28	 0.09	 
BMI_bs_120	 4	 2	 02	 2	 8	 4.301435e+01	 Mars.bmp	 KinderBuenoWhite2.bmp	 15	 17	 0	 i	 1	 1	 968.74	 2.06	 2.05	 
BMI_bs_120	 4	 2	 02	 2	 9	 4.701884e+01	 GumiSnakes3.bmp	 DoritosSourSpicy.bmp	 48	 53	 1	 i	 2	 0	 1014.39	 0.38	 0.28	 
BMI_bs_120	 4	 2	 02	 2	 10	 5.000552e+01	 CrunchShokoVanil.bmp	 GumiWine2.bmp	 50	 54	 0	 i	 2	 1	 1312.87	 0.29	 0.09	 
BMI_bs_120	 4	 2	 02	 2	 11	 5.300887e+01	 BambaSweet.bmp	 BisliGrill.bmp	 52	 43	 0	 i	 2	 1	 953.40	 0.28	 0.84	 
BMI_bs_120	 4	 2	 02	 2	 12	 5.801449e+01	 CrunchShokoVanil.bmp	 BisliGrill.bmp	 50	 43	 0	 i	 2	 1	 864.23	 0.29	 0.84	 
BMI_bs_120	 4	 2	 02	 2	 13	 6.201896e+01	 Egozi.bmp	 KinderBuenoWhite2.bmp	 21	 17	 0	 i	 1	 1	 718.69	 1.83	 2.05	 
BMI_bs_120	 4	 2	 02	 2	 14	 7.101237e+01	 ChocolateParaCookies5.bmp	 KinderBuenoWhite2.bmp	 12	 17	 0	 u	 1	 0	 1175.75	 2.11	 2.05	 
BMI_bs_120	 4	 2	 02	 2	 15	 7.401572e+01	 Mentos.bmp	 GumiWine2.bmp	 44	 54	 0	 u	 2	 0	 1052.51	 0.80	 0.09	 
BMI_bs_120	 4	 2	 02	 2	 16	 7.902133e+01	 WerthersOriginal.bmp	 Tortit.bmp	 45	 49	 0	 u	 2	 0	 839.62	 0.69	 0.34	 
BMI_bs_120	 4	 2	 02	 2	 17	 8.501137e+01	 SkittlesSour4.bmp	 ClickBisquit2.bmp	 9	 20	 1	 i	 1	 0	 992.35	 2.15	 1.92	 
BMI_bs_120	 4	 2	 02	 2	 18	 8.801473e+01	 Keifli.bmp	 BisliOnion.bmp	 41	 42	 1	 i	 2	 0	 959.12	 0.90	 0.85	 
BMI_bs_120	 4	 2	 02	 2	 19	 9.302033e+01	 BagaleShtuhim.bmp	 Keifli.bmp	 39	 41	 0	 i	 2	 1	 791.27	 1.07	 0.90	 
BMI_bs_120	 4	 2	 02	 2	 20	 9.700815e+01	 CrunchShokoVanil.bmp	 Shugi.bmp	 50	 46	 0	 i	 2	 1	 1483.64	 0.29	 0.62	 
BMI_bs_120	 4	 2	 02	 2	 21	 1.020137e+02	 Mars.bmp	 ClickXLbrown4.bmp	 15	 14	 0	 i	 1	 1	 1068.29	 2.06	 2.07	 
BMI_bs_120	 4	 2	 02	 2	 22	 1.070193e+02	 BisliGrill.bmp	 WerthersOriginal.bmp	 43	 45	 1	 u	 2	 1	 1181.64	 0.84	 0.69	 
BMI_bs_120	 4	 2	 02	 2	 23	 1.100060e+02	 ClickBlackWhite3.bmp	 Snickers.bmp	 18	 8	 0	 u	 1	 0	 1232.60	 2.04	 2.19	 
BMI_bs_120	 4	 2	 02	 2	 24	 1.130094e+02	 BisliOnion.bmp	 Shugi.bmp	 42	 46	 0	 u	 2	 0	 1019.40	 0.85	 0.62	 
BMI_bs_120	 4	 2	 02	 2	 25	 1.250061e+02	 CrunchShokoVanil.bmp	 Keifli.bmp	 50	 41	 0	 i	 2	 1	 880.73	 0.29	 0.90	 
BMI_bs_120	 4	 2	 02	 2	 26	 1.290106e+02	 ChocolateParaSucariotKoftzot2.bmp	 Twix.bmp	 13	 19	 0	 i	 1	 1	 892.61	 2.08	 1.92	 
BMI_bs_120	 4	 2	 02	 2	 27	 1.320140e+02	 SkittlesSour4.bmp	 ClickBlackWhite3.bmp	 9	 18	 1	 i	 1	 0	 1061.89	 2.15	 2.04	 
BMI_bs_120	 4	 2	 02	 2	 28	 1.390218e+02	 ChocolateParaSucariotKoftzot2.bmp	 TapuchipsCrunch.bmp	 13	 22	 0	 i	 1	 1	 748.13	 2.08	 1.79	 
BMI_bs_120	 4	 2	 02	 2	 29	 1.420085e+02	 WerthersOriginal.bmp	 Shugi.bmp	 45	 46	 0	 u	 2	 0	 945.33	 0.69	 0.62	 
BMI_bs_120	 4	 2	 02	 2	 30	 1.490164e+02	 Mars.bmp	 SkittlesSour4.bmp	 15	 9	 0	 u	 1	 0	 980.32	 2.06	 2.15	 
BMI_bs_120	 4	 2	 02	 2	 31	 1.540220e+02	 ClickBisquit2.bmp	 KifkefMaklot2.bmp	 20	 11	 0	 u	 1	 0	 1149.93	 1.92	 2.11	 
BMI_bs_120	 4	 2	 02	 2	 32	 1.580098e+02	 CrunchShokoVanil.bmp	 Tortit.bmp	 50	 49	 0	 u	 2	 0	 919.80	 0.29	 0.34	 
BMI_bs_120	 4	 2	 02	 2	 33	 1.630154e+02	 CrunchBisquitWhite2.bmp	 Twix.bmp	 10	 19	 0	 u	 1	 0	 774.40	 2.15	 1.92	 
BMI_bs_120	 4	 2	 02	 2	 34	 1.690221e+02	 ChocolateParaMilk3.bmp	 Mars.bmp	 16	 15	 1	 u	 1	 1	 876.76	 2.05	 2.06	 
BMI_bs_120	 4	 2	 02	 2	 35	 1.730099e+02	 Apropo.bmp	 CrunchShokoVanil.bmp	 40	 50	 1	 u	 2	 1	 837.88	 1.07	 0.29	 
BMI_bs_120	 4	 2	 02	 2	 36	 1.760132e+02	 Snickers.bmp	 ClickBalls5.bmp	 8	 7	 1	 i	 1	 0	 1108.44	 2.19	 2.21	 
BMI_bs_120	 4	 2	 02	 2	 37	 1.790166e+02	 BisliOnion.bmp	 GumiSnakes3.bmp	 42	 48	 0	 u	 2	 0	 895.17	 0.85	 0.38	 
BMI_bs_120	 4	 2	 02	 2	 38	 1.820200e+02	 BisliGrill.bmp	 BagaleShtuhim.bmp	 43	 39	 1	 u	 2	 1	 884.46	 0.84	 1.07	 
BMI_bs_120	 4	 2	 02	 2	 39	 1.860078e+02	 DoritosSourSpicy.bmp	 Tortit.bmp	 53	 49	 0	 u	 2	 0	 924.38	 0.28	 0.34	 
BMI_bs_120	 4	 2	 02	 2	 40	 1.900122e+02	 ChocolateParaMilk3.bmp	 ClickBlackWhite3.bmp	 16	 18	 1	 i	 1	 0	 880.02	 2.05	 2.04	 
BMI_bs_120	 4	 2	 02	 2	 41	 1.960190e+02	 BisliGrill.bmp	 Smarties.bmp	 43	 47	 1	 u	 2	 1	 779.84	 0.84	 0.58	 
BMI_bs_120	 4	 2	 02	 2	 42	 2.050124e+02	 HappyHippo.bmp	 Bounty.bmp	 23	 55	 1	 u	 3	 1	 1225.61	 1.77	 0.07	 
BMI_bs_120	 4	 2	 02	 2	 43	 2.080157e+02	 Twix.bmp	 Egozi.bmp	 19	 21	 1	 u	 1	 1	 1226.15	 1.92	 1.83	 
BMI_bs_120	 4	 2	 02	 2	 44	 2.120202e+02	 ClickBalls5.bmp	 KinderBuenoWhite2.bmp	 7	 17	 0	 i	 1	 1	 833.08	 2.21	 2.05	 
BMI_bs_120	 4	 2	 02	 2	 45	 2.170091e+02	 GumiWine2.bmp	 WerthersOriginal.bmp	 54	 45	 1	 i	 2	 0	 1041.92	 0.09	 0.69	 
BMI_bs_120	 4	 2	 02	 2	 46	 2.200125e+02	 Mars.bmp	 TapuchipsCrunch.bmp	 15	 22	 0	 i	 1	 1	 828.64	 2.06	 1.79	 
BMI_bs_120	 4	 2	 02	 2	 47	 2.240170e+02	 DoritosNatural.bmp	 Tapuchips.bmp	 56	 24	 0	 i	 4	 1	 1391.90	 0.06	 1.76	 
BMI_bs_120	 4	 2	 02	 2	 48	 2.340115e+02	 ClickXLbrown4.bmp	 CrunchBisquitWhite2.bmp	 14	 10	 1	 i	 1	 0	 757.80	 2.07	 2.15	 
BMI_bs_120	 4	 2	 02	 2	 49	 2.370149e+02	 Apropo.bmp	 BambaSweet.bmp	 40	 52	 1	 u	 2	 1	 972.09	 1.07	 0.28	 
BMI_bs_120	 4	 2	 02	 2	 50	 2.470094e+02	 KifkefMaklot2.bmp	 Egozi.bmp	 11	 21	 1	 i	 1	 0	 1148.02	 2.11	 1.83	 
BMI_bs_120	 4	 2	 02	 2	 51	 2.520150e+02	 Mentos.bmp	 Shugi.bmp	 44	 46	 0	 u	 2	 0	 1047.65	 0.80	 0.62	 
BMI_bs_120	 4	 2	 02	 2	 52	 2.570206e+02	 Keifli.bmp	 DoritosSourSpicy.bmp	 41	 53	 1	 u	 2	 1	 1026.03	 0.90	 0.28	 
BMI_bs_120	 4	 2	 02	 2	 53	 2.620095e+02	 DoritosNatural.bmp	 Taami.bmp	 56	 5	 0	 i	 4	 1	 818.65	 0.06	 2.55	 
BMI_bs_120	 4	 2	 02	 2	 54	 2.650129e+02	 Apropo.bmp	 Smarties.bmp	 40	 47	 1	 u	 2	 1	 864.11	 1.07	 0.58	 
BMI_bs_120	 4	 2	 02	 2	 55	 2.690174e+02	 Mekupelet.bmp	 Twist.bmp	 6	 38	 1	 u	 3	 1	 1472.33	 2.31	 1.09	 
BMI_bs_120	 4	 2	 02	 2	 56	 2.770096e+02	 TapuchipsCrunch.bmp	 ClickBlackWhite3.bmp	 22	 18	 1	 u	 1	 1	 927.88	 1.79	 2.04	 
BMI_bs_120	 4	 2	 02	 2	 57	 2.810141e+02	 KinderBuenoWhite2.bmp	 CrunchBisquitWhite2.bmp	 17	 10	 1	 i	 1	 0	 748.59	 2.05	 2.15	 
BMI_bs_120	 4	 2	 02	 2	 58	 2.840175e+02	 Apropo.bmp	 BisliOnion.bmp	 40	 42	 1	 i	 2	 0	 1311.66	 1.07	 0.85	 
BMI_bs_120	 4	 2	 02	 2	 59	 2.870208e+02	 Twix.bmp	 ClickBalls5.bmp	 19	 7	 1	 i	 1	 0	 1390.90	 1.92	 2.21	 
BMI_bs_120	 4	 2	 02	 2	 60	 3.000187e+02	 ChocolateParaMilk3.bmp	 ChocolateParaSucariotKoftzot2.bmp	 16	 13	 1	 i	 1	 0	 1184.85	 2.05	 2.08	 
BMI_bs_120	 4	 2	 02	 2	 61	 3.030054e+02	 ChocolateParaSucariotKoftzot2.bmp	 KifkefMaklot2.bmp	 13	 11	 0	 u	 1	 0	 830.80	 2.08	 2.11	 
BMI_bs_120	 4	 2	 02	 2	 62	 3.070099e+02	 Smarties.bmp	 Tortit.bmp	 47	 49	 0	 i	 2	 1	 1045.24	 0.58	 0.34	 
BMI_bs_120	 4	 2	 02	 2	 63	 3.120155e+02	 ChocolateParaCookies5.bmp	 ClickXLbrown4.bmp	 12	 14	 0	 u	 1	 0	 798.64	 2.11	 2.07	 
BMI_bs_120	 4	 2	 02	 2	 64	 3.210089e+02	 Twix.bmp	 ClickBlackWhite3.bmp	 19	 18	 1	 u	 1	 1	 1368.25	 1.92	 2.04	 
BMI_bs_120	 4	 2	 02	 2	 65	 3.240123e+02	 Smarties.bmp	 GumiWine2.bmp	 47	 54	 0	 u	 2	 0	 1402.51	 0.58	 0.09	 
BMI_bs_120	 4	 2	 02	 2	 66	 3.270156e+02	 KifkefMaklot2.bmp	 Mars.bmp	 11	 15	 1	 i	 1	 0	 1144.20	 2.11	 2.06	 
BMI_bs_120	 4	 2	 02	 2	 67	 3.330056e+02	 GumiWine2.bmp	 BambaSweet.bmp	 54	 52	 1	 i	 2	 0	 1094.50	 0.09	 0.28	 
BMI_bs_120	 4	 2	 02	 2	 68	 3.380113e+02	 Twix.bmp	 ClickBisquit2.bmp	 19	 20	 1	 u	 1	 1	 1129.08	 1.92	 1.92	 
