subjectID	scanner	order	block	run	trial	onsettime	ImageLeft	ImageRight	bidIndexLeft	bidIndexRight	IsleftGo	Response	PairType	Outcome	RT	bidLeft	bidRight	
BMI_bs_101	 4	 1	 01	 2	 1	 2.018457e+00	 BabyDoll.bmp	 ChocolateParaCookies5.bmp	 55	 6	 0	 i	 4	 1	 724.27	 0.27	 2.72	 
BMI_bs_101	 4	 1	 01	 2	 2	 5.021820e+00	 ClickXLwhite4.bmp	 ChocolateParaMilk3.bmp	 7	 8	 1	 u	 1	 1	 1062.36	 2.69	 2.61	 
BMI_bs_101	 4	 1	 01	 2	 3	 9.009621e+00	 Apropo.bmp	 ChocolateParaSucariotKoftzot2.bmp	 15	 11	 1	 i	 1	 0	 955.93	 1.90	 2.51	 
BMI_bs_101	 4	 1	 01	 2	 4	 1.501634e+01	 HappyHippo.bmp	 KinderJoy.bmp	 12	 22	 1	 u	 1	 1	 923.23	 2.24	 1.63	 
BMI_bs_101	 4	 1	 01	 2	 5	 2.100639e+01	 KinderJoy.bmp	 ClickXLwhite4.bmp	 22	 7	 0	 i	 1	 1	 715.98	 1.63	 2.69	 
BMI_bs_101	 4	 1	 01	 2	 6	 2.601199e+01	 ClickBalls5.bmp	 ChocolateParaSucariotKoftzot2.bmp	 10	 11	 1	 i	 1	 0	 851.91	 2.54	 2.51	 
BMI_bs_101	 4	 1	 01	 2	 7	 3.001648e+01	 ChocolateParaMilk3.bmp	 KinderBuenoBrown3.bmp	 8	 13	 0	 i	 1	 1	 807.54	 2.61	 1.95	 
BMI_bs_101	 4	 1	 01	 2	 8	 3.500539e+01	 KashitSour.bmp	 SkittlesSour4.bmp	 50	 46	 1	 u	 2	 1	 633.84	 0.61	 0.74	 
BMI_bs_101	 4	 1	 01	 2	 9	 4.101212e+01	 Egozi.bmp	 SkittlesSour4.bmp	 52	 46	 1	 u	 2	 1	 724.90	 0.59	 0.74	 
BMI_bs_101	 4	 1	 01	 2	 10	 4.401548e+01	 BambaNugat.bmp	 HappyHippo.bmp	 9	 12	 0	 i	 1	 1	 691.66	 2.61	 2.24	 
BMI_bs_101	 4	 1	 01	 2	 11	 4.701885e+01	 Apropo.bmp	 KinderBuenoWhite2.bmp	 15	 17	 1	 i	 1	 0	 827.20	 1.90	 1.76	 
BMI_bs_101	 4	 1	 01	 2	 12	 5.100664e+01	 BisliGrill.bmp	 Twix.bmp	 20	 16	 1	 x	 1	 999	 999000.00	 1.70	 1.77	 
BMI_bs_101	 4	 1	 01	 2	 13	 5.601226e+01	 ChocolateParaSucariotKoftzot2.bmp	 PesekZman.bmp	 11	 21	 0	 i	 1	 1	 1317.99	 2.51	 1.67	 
BMI_bs_101	 4	 1	 01	 2	 14	 5.901561e+01	 ClickXLwhite4.bmp	 KinderBuenoWhite2.bmp	 7	 17	 1	 u	 1	 1	 834.72	 2.69	 1.76	 
BMI_bs_101	 4	 1	 01	 2	 15	 6.201898e+01	 BambaNugat.bmp	 KinderBuenoBrown3.bmp	 9	 13	 0	 u	 1	 0	 632.75	 2.61	 1.95	 
BMI_bs_101	 4	 1	 01	 2	 16	 6.600678e+01	 KinderBuenoWhite2.bmp	 PesekZman.bmp	 17	 21	 0	 u	 1	 0	 650.13	 1.76	 1.67	 
BMI_bs_101	 4	 1	 01	 2	 17	 8.000580e+01	 KinderJoy.bmp	 Apropo.bmp	 22	 15	 0	 u	 1	 0	 950.51	 1.63	 1.90	 
BMI_bs_101	 4	 1	 01	 2	 18	 8.801475e+01	 Kitkat.bmp	 ClickBalls5.bmp	 14	 10	 0	 i	 1	 1	 760.68	 1.92	 2.54	 
BMI_bs_101	 4	 1	 01	 2	 19	 9.400480e+01	 Popco.bmp	 SkittlesFruits2.bmp	 49	 53	 0	 u	 2	 0	 767.16	 0.63	 0.49	 
BMI_bs_101	 4	 1	 01	 2	 20	 9.700815e+01	 BisliPizza3.bmp	 Tortit.bmp	 40	 44	 0	 i	 2	 1	 846.44	 0.88	 0.82	 
BMI_bs_101	 4	 1	 01	 2	 21	 1.010127e+02	 GumiWine2.bmp	 Egozi.bmp	 54	 52	 0	 i	 2	 1	 847.10	 0.37	 0.59	 
BMI_bs_101	 4	 1	 01	 2	 22	 1.070194e+02	 Kitkat.bmp	 Apropo.bmp	 14	 15	 0	 u	 1	 0	 735.67	 1.92	 1.90	 
BMI_bs_101	 4	 1	 01	 2	 23	 1.100060e+02	 SkittlesFruits2.bmp	 GumiWine2.bmp	 53	 54	 1	 u	 2	 1	 662.88	 0.49	 0.37	 
BMI_bs_101	 4	 1	 01	 2	 24	 1.130094e+02	 BisliPizza3.bmp	 DoritosNatural.bmp	 40	 45	 0	 i	 2	 1	 888.41	 0.88	 0.79	 
BMI_bs_101	 4	 1	 01	 2	 25	 1.160128e+02	 Tortit.bmp	 Smarties.bmp	 44	 43	 1	 i	 2	 0	 821.42	 0.82	 0.82	 
BMI_bs_101	 4	 1	 01	 2	 26	 1.230206e+02	 HappyHippo.bmp	 KifkefMaklot2.bmp	 12	 19	 1	 u	 1	 1	 800.14	 2.24	 1.71	 
BMI_bs_101	 4	 1	 01	 2	 27	 1.260073e+02	 GumiWine2.bmp	 GumiSnakes3.bmp	 54	 39	 0	 u	 2	 0	 986.13	 0.37	 0.88	 
BMI_bs_101	 4	 1	 01	 2	 28	 1.290107e+02	 Tictac.bmp	 BisliPizza3.bmp	 47	 40	 1	 i	 2	 0	 1087.91	 0.70	 0.88	 
BMI_bs_101	 4	 1	 01	 2	 29	 1.340163e+02	 ChocolateParaMilk3.bmp	 ClickBalls5.bmp	 8	 10	 0	 i	 1	 1	 897.54	 2.61	 2.54	 
BMI_bs_101	 4	 1	 01	 2	 30	 1.370196e+02	 KinderBuenoWhite2.bmp	 KinderBuenoBrown3.bmp	 17	 13	 0	 u	 1	 0	 830.61	 1.76	 1.95	 
BMI_bs_101	 4	 1	 01	 2	 31	 1.410074e+02	 Egozi.bmp	 Dubonim.bmp	 52	 41	 1	 i	 2	 0	 735.48	 0.59	 0.85	 
BMI_bs_101	 4	 1	 01	 2	 32	 1.470141e+02	 BisliGrill.bmp	 Kitkat.bmp	 20	 14	 1	 u	 1	 1	 871.47	 1.70	 1.92	 
BMI_bs_101	 4	 1	 01	 2	 33	 1.500175e+02	 BisliPizza3.bmp	 SkittlesFruits2.bmp	 40	 53	 0	 u	 2	 0	 815.72	 0.88	 0.49	 
BMI_bs_101	 4	 1	 01	 2	 34	 1.570087e+02	 PesekZman.bmp	 BambaNugat.bmp	 21	 9	 1	 i	 1	 0	 923.66	 1.67	 2.61	 
BMI_bs_101	 4	 1	 01	 2	 35	 1.620143e+02	 Twix.bmp	 Apropo.bmp	 16	 15	 0	 i	 1	 1	 1430.80	 1.77	 1.90	 
BMI_bs_101	 4	 1	 01	 2	 36	 1.660188e+02	 KashitSour.bmp	 Smarties.bmp	 50	 43	 1	 u	 2	 1	 733.95	 0.61	 0.82	 
BMI_bs_101	 4	 1	 01	 2	 37	 1.690055e+02	 GumiSnakes3.bmp	 SkittlesSour4.bmp	 39	 46	 1	 i	 2	 0	 1144.95	 0.88	 0.74	 
BMI_bs_101	 4	 1	 01	 2	 38	 1.720088e+02	 ClickBalls5.bmp	 BambaNugat.bmp	 10	 9	 1	 i	 1	 0	 706.70	 2.54	 2.61	 
BMI_bs_101	 4	 1	 01	 2	 39	 1.820200e+02	 Cheetos.bmp	 Halva2.bmp	 51	 42	 0	 i	 2	 1	 787.20	 0.59	 0.83	 
BMI_bs_101	 4	 1	 01	 2	 40	 1.930156e+02	 Egozi.bmp	 Hit.bmp	 52	 48	 1	 i	 2	 0	 1030.83	 0.59	 0.66	 
BMI_bs_101	 4	 1	 01	 2	 41	 1.980213e+02	 ChocolateParaSucariotKoftzot2.bmp	 HappyHippo.bmp	 11	 12	 0	 i	 1	 1	 761.70	 2.51	 2.24	 
BMI_bs_101	 4	 1	 01	 2	 42	 2.070147e+02	 Twix.bmp	 KinderBuenoBrown3.bmp	 16	 13	 0	 i	 1	 1	 937.45	 1.77	 1.95	 
BMI_bs_101	 4	 1	 01	 2	 43	 2.100180e+02	 GumiWine2.bmp	 Tictac.bmp	 54	 47	 0	 u	 2	 0	 870.49	 0.37	 0.70	 
BMI_bs_101	 4	 1	 01	 2	 44	 2.150069e+02	 Kitkat.bmp	 ClickXLwhite4.bmp	 14	 7	 0	 i	 1	 1	 854.29	 1.92	 2.69	 
BMI_bs_101	 4	 1	 01	 2	 45	 2.180103e+02	 Dubonim.bmp	 DoritosNatural.bmp	 41	 45	 0	 i	 2	 1	 1237.34	 0.85	 0.79	 
BMI_bs_101	 4	 1	 01	 2	 46	 2.270204e+02	 BisliPizza3.bmp	 KashitSour.bmp	 40	 50	 0	 u	 2	 0	 777.63	 0.88	 0.61	 
BMI_bs_101	 4	 1	 01	 2	 47	 2.370149e+02	 SkittlesFruits2.bmp	 SkittlesSour4.bmp	 53	 46	 1	 u	 2	 1	 1246.10	 0.49	 0.74	 
BMI_bs_101	 4	 1	 01	 2	 48	 2.400183e+02	 BisliOnion.bmp	 CrunchBisquitBrown3.bmp	 37	 5	 0	 i	 3	 1	 1021.64	 0.89	 2.77	 
BMI_bs_101	 4	 1	 01	 2	 49	 2.470094e+02	 Halva2.bmp	 SkittlesSour4.bmp	 42	 46	 1	 u	 2	 1	 1028.26	 0.83	 0.74	 
BMI_bs_101	 4	 1	 01	 2	 50	 2.500128e+02	 Cheetos.bmp	 Tictac.bmp	 51	 47	 0	 u	 2	 0	 972.53	 0.59	 0.70	 
BMI_bs_101	 4	 1	 01	 2	 51	 2.530162e+02	 ChocolateParaMilk3.bmp	 HappyHippo.bmp	 8	 12	 0	 i	 1	 1	 646.80	 2.61	 2.24	 
BMI_bs_101	 4	 1	 01	 2	 52	 2.560195e+02	 BisliGrill.bmp	 ChocolateParaSucariotKoftzot2.bmp	 20	 11	 1	 i	 1	 0	 827.40	 1.70	 2.51	 
BMI_bs_101	 4	 1	 01	 2	 53	 2.590062e+02	 Popco.bmp	 Tictac.bmp	 49	 47	 0	 u	 2	 0	 675.80	 0.63	 0.70	 
BMI_bs_101	 4	 1	 01	 2	 54	 2.630107e+02	 ChocolateParaMilk3.bmp	 PesekZman.bmp	 8	 21	 0	 u	 1	 0	 1025.24	 2.61	 1.67	 
BMI_bs_101	 4	 1	 01	 2	 55	 2.660140e+02	 SkittlesFruits2.bmp	 Smarties.bmp	 53	 43	 1	 i	 2	 0	 1217.04	 0.49	 0.82	 
BMI_bs_101	 4	 1	 01	 2	 56	 2.730219e+02	 KashitSour.bmp	 Cheetos.bmp	 50	 51	 1	 i	 2	 0	 734.49	 0.61	 0.59	 
BMI_bs_101	 4	 1	 01	 2	 57	 2.810142e+02	 CrunchBisquitBrown3.bmp	 Shugi.bmp	 5	 56	 1	 u	 3	 1	 943.81	 2.77	 0.20	 
BMI_bs_101	 4	 1	 01	 2	 58	 2.880053e+02	 Dubonim.bmp	 Tortit.bmp	 41	 44	 0	 x	 2	 999	 999000.00	 0.85	 0.82	 
BMI_bs_101	 4	 1	 01	 2	 59	 2.970154e+02	 ClickBalls5.bmp	 KinderBuenoWhite2.bmp	 10	 17	 1	 i	 1	 0	 704.57	 2.54	 1.76	 
BMI_bs_101	 4	 1	 01	 2	 60	 3.060088e+02	 KifkefMaklot2.bmp	 ClickXLwhite4.bmp	 19	 7	 0	 i	 1	 1	 554.09	 1.71	 2.69	 
BMI_bs_101	 4	 1	 01	 2	 61	 3.110144e+02	 Halva2.bmp	 Hit.bmp	 42	 48	 1	 i	 2	 0	 768.67	 0.83	 0.66	 
BMI_bs_101	 4	 1	 01	 2	 62	 3.140178e+02	 Egozi.bmp	 Smarties.bmp	 52	 43	 1	 i	 2	 0	 825.44	 0.59	 0.82	 
BMI_bs_101	 4	 1	 01	 2	 63	 3.170212e+02	 PesekZman.bmp	 KifkefMaklot2.bmp	 21	 19	 1	 u	 1	 1	 814.76	 1.67	 1.71	 
BMI_bs_101	 4	 1	 01	 2	 64	 3.200078e+02	 Tictac.bmp	 Smarties.bmp	 47	 43	 1	 i	 2	 0	 685.70	 0.70	 0.82	 
BMI_bs_101	 4	 1	 01	 2	 65	 3.240123e+02	 Bounty.bmp	 BabyDoll.bmp	 23	 55	 1	 u	 4	 1	 765.15	 1.54	 0.27	 
BMI_bs_101	 4	 1	 01	 2	 66	 3.310202e+02	 Egozi.bmp	 Cheetos.bmp	 52	 51	 1	 u	 2	 1	 856.40	 0.59	 0.59	 
BMI_bs_101	 4	 1	 01	 2	 67	 3.340068e+02	 Tictac.bmp	 Dubonim.bmp	 47	 41	 1	 i	 2	 0	 704.86	 0.70	 0.85	 
BMI_bs_101	 4	 1	 01	 2	 68	 3.380113e+02	 Popco.bmp	 GumiSnakes3.bmp	 49	 39	 0	 u	 2	 0	 761.80	 0.63	 0.88	 
