subjectID	scanner	order	block	run	trial	onsettime	ImageLeft	ImageRight	bidIndexLeft	bidIndexRight	IsleftGo	Response	PairType	Outcome	RT	bidLeft	bidRight	
BMI_bs_128	 4	 2	 02	 2	 1	 2.018504e+00	 KinderJoy.bmp	 Egozi.bmp	 44	 49	 0	 u	 2	 0	 741.32	 0.83	 0.55	 
BMI_bs_128	 4	 2	 02	 2	 2	 7.007421e+00	 Kitkat.bmp	 Taami.bmp	 22	 21	 1	 u	 1	 1	 961.38	 1.84	 1.85	 
BMI_bs_128	 4	 2	 02	 2	 3	 1.501640e+01	 BisliPizza3.bmp	 ClickBalls5.bmp	 16	 7	 1	 i	 1	 0	 1030.28	 1.93	 2.25	 
BMI_bs_128	 4	 2	 02	 2	 4	 1.801975e+01	 Snickers.bmp	 Shugi.bmp	 51	 53	 1	 u	 2	 1	 1064.54	 0.33	 0.23	 
BMI_bs_128	 4	 2	 02	 2	 5	 2.501092e+01	 ChocolateParaSucariotKoftzot2.bmp	 ChocolateParaMarir2.bmp	 48	 52	 1	 i	 2	 0	 1059.96	 0.68	 0.29	 
BMI_bs_128	 4	 2	 02	 2	 6	 2.801428e+01	 ClickBisquit2.bmp	 Taami.bmp	 8	 21	 1	 u	 1	 1	 813.01	 2.22	 1.85	 
BMI_bs_128	 4	 2	 02	 2	 7	 3.900993e+01	 Shugi.bmp	 BagaleShtuhim.bmp	 53	 54	 0	 i	 2	 1	 910.35	 0.23	 0.18	 
BMI_bs_128	 4	 2	 02	 2	 8	 4.301441e+01	 ChocolateParaCookies5.bmp	 Keifli.bmp	 15	 17	 0	 u	 1	 0	 967.27	 1.95	 1.92	 
BMI_bs_128	 4	 2	 02	 2	 9	 4.701891e+01	 ChocolateParaSucariotKoftzot2.bmp	 Shugi.bmp	 48	 53	 1	 u	 2	 1	 799.21	 0.68	 0.23	 
BMI_bs_128	 4	 2	 02	 2	 10	 5.002227e+01	 KifkefMaklot2.bmp	 BagaleShtuhim.bmp	 50	 54	 0	 u	 2	 0	 844.73	 0.36	 0.18	 
BMI_bs_128	 4	 2	 02	 2	 11	 5.300895e+01	 ChocolateParaMarir2.bmp	 WerthersOriginal.bmp	 52	 43	 0	 u	 2	 0	 918.19	 0.29	 0.86	 
BMI_bs_128	 4	 2	 02	 2	 12	 5.801455e+01	 KifkefMaklot2.bmp	 WerthersOriginal.bmp	 50	 43	 0	 u	 2	 0	 885.33	 0.36	 0.86	 
BMI_bs_128	 4	 2	 02	 2	 13	 6.201903e+01	 Taami.bmp	 Keifli.bmp	 21	 17	 0	 i	 1	 1	 1302.29	 1.85	 1.92	 
BMI_bs_128	 4	 2	 02	 2	 14	 7.101245e+01	 BambaNugat.bmp	 Keifli.bmp	 12	 17	 0	 u	 1	 0	 1028.04	 2.01	 1.92	 
BMI_bs_128	 4	 2	 02	 2	 15	 7.401582e+01	 KinderJoy.bmp	 BagaleShtuhim.bmp	 44	 54	 0	 u	 2	 0	 702.29	 0.83	 0.18	 
BMI_bs_128	 4	 2	 02	 2	 16	 7.902141e+01	 CrunchShokoVanil.bmp	 Egozi.bmp	 45	 49	 0	 x	 2	 999	 999000.00	 0.81	 0.55	 
BMI_bs_128	 4	 2	 02	 2	 17	 8.501145e+01	 Loacker.bmp	 BisliOnion.bmp	 9	 20	 1	 u	 1	 1	 754.64	 2.12	 1.89	 
BMI_bs_128	 4	 2	 02	 2	 18	 8.801482e+01	 BabyDoll.bmp	 Hit.bmp	 41	 42	 1	 i	 2	 0	 991.44	 0.91	 0.89	 
BMI_bs_128	 4	 2	 02	 2	 19	 9.302042e+01	 Tapuchips.bmp	 BabyDoll.bmp	 39	 41	 0	 u	 2	 0	 677.31	 1.15	 0.91	 
BMI_bs_128	 4	 2	 02	 2	 20	 9.700823e+01	 KifkefMaklot2.bmp	 Mars.bmp	 50	 46	 0	 u	 2	 0	 660.91	 0.36	 0.77	 
BMI_bs_128	 4	 2	 02	 2	 21	 1.020138e+02	 ChocolateParaCookies5.bmp	 Dubonim.bmp	 15	 14	 0	 u	 1	 0	 549.26	 1.95	 1.99	 
BMI_bs_128	 4	 2	 02	 2	 22	 1.070194e+02	 WerthersOriginal.bmp	 CrunchShokoVanil.bmp	 43	 45	 1	 u	 2	 1	 685.14	 0.86	 0.81	 
BMI_bs_128	 4	 2	 02	 2	 23	 1.100061e+02	 Bounty.bmp	 ClickBisquit2.bmp	 18	 8	 0	 i	 1	 1	 724.88	 1.91	 2.22	 
BMI_bs_128	 4	 2	 02	 2	 24	 1.130095e+02	 Hit.bmp	 Mars.bmp	 42	 46	 0	 u	 2	 0	 680.40	 0.89	 0.77	 
BMI_bs_128	 4	 2	 02	 2	 25	 1.250063e+02	 KifkefMaklot2.bmp	 BabyDoll.bmp	 50	 41	 0	 u	 2	 0	 777.98	 0.36	 0.91	 
BMI_bs_128	 4	 2	 02	 2	 26	 1.290107e+02	 Apropo.bmp	 KinderBuenoBrown3.bmp	 13	 19	 0	 i	 1	 1	 913.62	 1.99	 1.89	 
BMI_bs_128	 4	 2	 02	 2	 27	 1.320141e+02	 Loacker.bmp	 Bounty.bmp	 9	 18	 1	 u	 1	 1	 666.65	 2.12	 1.91	 
BMI_bs_128	 4	 2	 02	 2	 28	 1.390053e+02	 Apropo.bmp	 Kitkat.bmp	 13	 22	 0	 u	 1	 0	 662.03	 1.99	 1.84	 
BMI_bs_128	 4	 2	 02	 2	 29	 1.420086e+02	 CrunchShokoVanil.bmp	 Mars.bmp	 45	 46	 0	 i	 2	 1	 1011.35	 0.81	 0.77	 
BMI_bs_128	 4	 2	 02	 2	 30	 1.490165e+02	 ChocolateParaCookies5.bmp	 Loacker.bmp	 15	 9	 0	 i	 1	 1	 843.80	 1.95	 2.12	 
BMI_bs_128	 4	 2	 02	 2	 31	 1.540054e+02	 BisliOnion.bmp	 ClickXLwhite4.bmp	 20	 11	 0	 i	 1	 1	 726.38	 1.89	 2.02	 
BMI_bs_128	 4	 2	 02	 2	 32	 1.580099e+02	 KifkefMaklot2.bmp	 Egozi.bmp	 50	 49	 0	 u	 2	 0	 670.79	 0.36	 0.55	 
BMI_bs_128	 4	 2	 02	 2	 33	 1.630155e+02	 CrunchBisquitBrown3.bmp	 KinderBuenoBrown3.bmp	 10	 19	 0	 u	 1	 0	 559.17	 2.05	 1.89	 
BMI_bs_128	 4	 2	 02	 2	 34	 1.690055e+02	 BisliPizza3.bmp	 ChocolateParaCookies5.bmp	 16	 15	 1	 i	 1	 0	 655.70	 1.93	 1.95	 
BMI_bs_128	 4	 2	 02	 2	 35	 1.730100e+02	 Mentos.bmp	 KifkefMaklot2.bmp	 40	 50	 1	 i	 2	 0	 735.08	 0.96	 0.36	 
BMI_bs_128	 4	 2	 02	 2	 36	 1.760134e+02	 ClickBisquit2.bmp	 ClickBalls5.bmp	 8	 7	 1	 i	 1	 0	 904.37	 2.22	 2.25	 
BMI_bs_128	 4	 2	 02	 2	 37	 1.790167e+02	 Hit.bmp	 ChocolateParaSucariotKoftzot2.bmp	 42	 48	 0	 u	 2	 0	 949.90	 0.89	 0.68	 
BMI_bs_128	 4	 2	 02	 2	 38	 1.820201e+02	 WerthersOriginal.bmp	 Tapuchips.bmp	 43	 39	 1	 i	 2	 0	 781.69	 0.86	 1.15	 
BMI_bs_128	 4	 2	 02	 2	 39	 1.860079e+02	 Shugi.bmp	 Egozi.bmp	 53	 49	 0	 i	 2	 1	 742.82	 0.23	 0.55	 
BMI_bs_128	 4	 2	 02	 2	 40	 1.900124e+02	 BisliPizza3.bmp	 Bounty.bmp	 16	 18	 1	 u	 1	 1	 867.26	 1.93	 1.91	 
BMI_bs_128	 4	 2	 02	 2	 41	 1.960191e+02	 WerthersOriginal.bmp	 Smarties.bmp	 43	 47	 1	 u	 2	 1	 924.56	 0.86	 0.74	 
BMI_bs_128	 4	 2	 02	 2	 42	 2.050125e+02	 ClickXLbrown4.bmp	 Tictac.bmp	 23	 55	 1	 u	 3	 1	 774.11	 1.79	 0.03	 
BMI_bs_128	 4	 2	 02	 2	 43	 2.080159e+02	 KinderBuenoBrown3.bmp	 Taami.bmp	 19	 21	 1	 u	 1	 1	 774.59	 1.89	 1.85	 
BMI_bs_128	 4	 2	 02	 2	 44	 2.120204e+02	 ClickBalls5.bmp	 Keifli.bmp	 7	 17	 0	 u	 1	 0	 1202.86	 2.25	 1.92	 
BMI_bs_128	 4	 2	 02	 2	 45	 2.170093e+02	 BagaleShtuhim.bmp	 CrunchShokoVanil.bmp	 54	 45	 1	 i	 2	 0	 1141.61	 0.18	 0.81	 
BMI_bs_128	 4	 2	 02	 2	 46	 2.200127e+02	 ChocolateParaCookies5.bmp	 Kitkat.bmp	 15	 22	 0	 u	 1	 0	 714.60	 1.95	 1.84	 
BMI_bs_128	 4	 2	 02	 2	 47	 2.240171e+02	 Popco.bmp	 DoritosGrill.bmp	 56	 24	 0	 i	 4	 1	 917.80	 0.03	 1.75	 
BMI_bs_128	 4	 2	 02	 2	 48	 2.340117e+02	 Dubonim.bmp	 CrunchBisquitBrown3.bmp	 14	 10	 1	 i	 1	 0	 924.99	 1.99	 2.05	 
BMI_bs_128	 4	 2	 02	 2	 49	 2.370150e+02	 Mentos.bmp	 ChocolateParaMarir2.bmp	 40	 52	 1	 i	 2	 0	 745.54	 0.96	 0.29	 
BMI_bs_128	 4	 2	 02	 2	 50	 2.470095e+02	 ClickXLwhite4.bmp	 Taami.bmp	 11	 21	 1	 u	 1	 1	 640.20	 2.02	 1.85	 
BMI_bs_128	 4	 2	 02	 2	 51	 2.520152e+02	 KinderJoy.bmp	 Mars.bmp	 44	 46	 0	 u	 2	 0	 708.56	 0.83	 0.77	 
BMI_bs_128	 4	 2	 02	 2	 52	 2.570208e+02	 BabyDoll.bmp	 Shugi.bmp	 41	 53	 1	 i	 2	 0	 754.46	 0.91	 0.23	 
BMI_bs_128	 4	 2	 02	 2	 53	 2.620097e+02	 Popco.bmp	 KinderBuenoWhite2.bmp	 56	 5	 0	 i	 4	 1	 727.00	 0.03	 2.37	 
BMI_bs_128	 4	 2	 02	 2	 54	 2.650130e+02	 Mentos.bmp	 Smarties.bmp	 40	 47	 1	 i	 2	 0	 828.76	 0.96	 0.74	 
BMI_bs_128	 4	 2	 02	 2	 55	 2.690175e+02	 Twix.bmp	 HispusimShatiah.bmp	 6	 38	 1	 u	 3	 1	 896.96	 2.27	 1.31	 
BMI_bs_128	 4	 2	 02	 2	 56	 2.770098e+02	 Kitkat.bmp	 Bounty.bmp	 22	 18	 1	 u	 1	 1	 746.29	 1.84	 1.91	 
BMI_bs_128	 4	 2	 02	 2	 57	 2.810143e+02	 Keifli.bmp	 CrunchBisquitBrown3.bmp	 17	 10	 1	 i	 1	 0	 870.73	 1.92	 2.05	 
BMI_bs_128	 4	 2	 02	 2	 58	 2.840177e+02	 Mentos.bmp	 Hit.bmp	 40	 42	 1	 i	 2	 0	 691.25	 0.96	 0.89	 
BMI_bs_128	 4	 2	 02	 2	 59	 2.870210e+02	 KinderBuenoBrown3.bmp	 ClickBalls5.bmp	 19	 7	 1	 u	 1	 1	 916.78	 1.89	 2.25	 
BMI_bs_128	 4	 2	 02	 2	 60	 3.000189e+02	 BisliPizza3.bmp	 Apropo.bmp	 16	 13	 1	 u	 1	 1	 1081.99	 1.93	 1.99	 
BMI_bs_128	 4	 2	 02	 2	 61	 3.030223e+02	 Apropo.bmp	 ClickXLwhite4.bmp	 13	 11	 0	 i	 1	 1	 1060.03	 1.99	 2.02	 
BMI_bs_128	 4	 2	 02	 2	 62	 3.070101e+02	 Smarties.bmp	 Egozi.bmp	 47	 49	 0	 u	 2	 0	 1178.71	 0.74	 0.55	 
BMI_bs_128	 4	 2	 02	 2	 63	 3.120157e+02	 BambaNugat.bmp	 Dubonim.bmp	 12	 14	 0	 u	 1	 0	 808.26	 2.01	 1.99	 
BMI_bs_128	 4	 2	 02	 2	 64	 3.210091e+02	 KinderBuenoBrown3.bmp	 Bounty.bmp	 19	 18	 1	 u	 1	 1	 714.03	 1.89	 1.91	 
BMI_bs_128	 4	 2	 02	 2	 65	 3.240124e+02	 Smarties.bmp	 BagaleShtuhim.bmp	 47	 54	 0	 u	 2	 0	 939.55	 0.74	 0.18	 
BMI_bs_128	 4	 2	 02	 2	 66	 3.270158e+02	 ClickXLwhite4.bmp	 ChocolateParaCookies5.bmp	 11	 15	 1	 i	 1	 0	 883.83	 2.02	 1.95	 
BMI_bs_128	 4	 2	 02	 2	 67	 3.330059e+02	 BagaleShtuhim.bmp	 ChocolateParaMarir2.bmp	 54	 52	 1	 i	 2	 0	 856.57	 0.18	 0.29	 
BMI_bs_128	 4	 2	 02	 2	 68	 3.380115e+02	 KinderBuenoBrown3.bmp	 BisliOnion.bmp	 19	 20	 1	 u	 1	 1	 801.20	 1.89	 1.89	 
