subjectID	scanner	order	block	run	trial	onsettime	ImageLeft	ImageRight	bidIndexLeft	bidIndexRight	IsleftGo	Response	PairType	Outcome	RT	bidLeft	bidRight	
BMI_bs_122	 4	 2	 02	 1	 1	 2.018326e+00	 BagaleShtuhim.bmp	 Popco.bmp	 51	 53	 1	 i	 2	 0	 1274.26	 0.01	 0.01	 
BMI_bs_122	 4	 2	 02	 1	 2	 5.021683e+00	 BagaleShtuhim.bmp	 BambaNugat.bmp	 51	 47	 1	 i	 2	 0	 959.81	 0.01	 0.01	 
BMI_bs_122	 4	 2	 02	 1	 3	 1.201286e+01	 ChocolateParaMarir2.bmp	 KinderJoy.bmp	 20	 19	 0	 u	 1	 0	 606.44	 1.40	 1.40	 
BMI_bs_122	 4	 2	 02	 1	 4	 1.601734e+01	 Bounty.bmp	 HispusimShatiah.bmp	 52	 40	 0	 i	 2	 1	 730.85	 0.01	 0.47	 
BMI_bs_122	 4	 2	 02	 1	 5	 2.100627e+01	 KinderBuenoWhite2.bmp	 Keifli.bmp	 15	 14	 0	 i	 1	 1	 590.94	 1.50	 1.54	 
BMI_bs_122	 4	 2	 02	 1	 6	 2.501074e+01	 BambaNugat.bmp	 HispusimShatiah.bmp	 47	 40	 0	 i	 2	 1	 996.67	 0.01	 0.47	 
BMI_bs_122	 4	 2	 02	 1	 7	 2.901524e+01	 KinderJoy.bmp	 ClickXLwhite4.bmp	 19	 10	 1	 i	 1	 0	 716.15	 1.40	 1.88	 
BMI_bs_122	 4	 2	 02	 1	 8	 3.201859e+01	 ChocolateParaCookies5.bmp	 KinderJoy.bmp	 12	 19	 0	 u	 1	 0	 615.39	 1.80	 1.40	 
BMI_bs_122	 4	 2	 02	 1	 9	 3.502197e+01	 BisliOnion.bmp	 Twix.bmp	 22	 7	 1	 i	 1	 0	 514.60	 1.37	 2.01	 
BMI_bs_122	 4	 2	 02	 1	 10	 4.001088e+01	 Loacker.bmp	 Tapuchips.bmp	 42	 54	 0	 i	 2	 1	 1038.52	 0.39	 0.01	 
BMI_bs_122	 4	 2	 02	 1	 11	 4.401538e+01	 CrunchShokoVanil.bmp	 BagaleShtuhim.bmp	 39	 51	 0	 u	 2	 0	 1219.18	 0.49	 0.01	 
BMI_bs_122	 4	 2	 02	 1	 12	 4.902098e+01	 CrunchBisquitWhite2.bmp	 BisliPizza3.bmp	 5	 37	 1	 u	 4	 1	 612.51	 2.07	 0.77	 
BMI_bs_122	 4	 2	 02	 1	 13	 5.300879e+01	 Tapuchips.bmp	 Bounty.bmp	 54	 52	 1	 u	 2	 1	 708.65	 0.01	 0.01	 
BMI_bs_122	 4	 2	 02	 1	 14	 5.601214e+01	 DoritosSourSpicy.bmp	 KinderBuenoBrown3.bmp	 55	 6	 0	 i	 3	 1	 540.42	 0.01	 2.04	 
BMI_bs_122	 4	 2	 02	 1	 15	 6.001663e+01	 Twist.bmp	 Twix.bmp	 16	 7	 1	 i	 1	 0	 743.61	 1.45	 2.01	 
BMI_bs_122	 4	 2	 02	 1	 16	 6.600668e+01	 ClickXLbrown4.bmp	 ChocolateParaCookies5.bmp	 9	 12	 1	 i	 1	 0	 750.09	 1.89	 1.80	 
BMI_bs_122	 4	 2	 02	 1	 17	 7.301453e+01	 CrunchBisquitWhite2.bmp	 BambaSweet.bmp	 5	 56	 1	 u	 4	 1	 672.58	 2.07	 0.01	 
BMI_bs_122	 4	 2	 02	 1	 18	 7.601789e+01	 CrunchShokoVanil.bmp	 GumiWine2.bmp	 39	 48	 0	 u	 2	 0	 763.12	 0.49	 0.01	 
BMI_bs_122	 4	 2	 02	 1	 19	 8.100681e+01	 SkittlesSour4.bmp	 Bounty.bmp	 41	 52	 1	 u	 2	 1	 836.91	 0.47	 0.01	 
BMI_bs_122	 4	 2	 02	 1	 20	 8.601242e+01	 Egozi.bmp	 Bounty.bmp	 43	 52	 1	 u	 2	 1	 950.30	 0.38	 0.01	 
BMI_bs_122	 4	 2	 02	 1	 21	 9.201915e+01	 Tapuchips.bmp	 BambaNugat.bmp	 54	 47	 1	 u	 2	 1	 1030.05	 0.01	 0.01	 
BMI_bs_122	 4	 2	 02	 1	 22	 9.600694e+01	 BagaleShtuhim.bmp	 GumiSnakes3.bmp	 51	 50	 1	 u	 2	 1	 811.23	 0.01	 0.01	 
BMI_bs_122	 4	 2	 02	 1	 23	 1.010126e+02	 Popco.bmp	 SkittlesSour4.bmp	 53	 41	 0	 u	 2	 0	 857.10	 0.01	 0.47	 
BMI_bs_122	 4	 2	 02	 1	 24	 1.080204e+02	 Hit.bmp	 ChocolateParaSucariotKoftzot2.bmp	 38	 23	 0	 i	 3	 1	 914.57	 0.69	 1.37	 
BMI_bs_122	 4	 2	 02	 1	 25	 1.130093e+02	 Twix.bmp	 KinderJoy.bmp	 7	 19	 0	 u	 1	 0	 583.36	 2.01	 1.40	 
BMI_bs_122	 4	 2	 02	 1	 26	 1.180149e+02	 HispusimShatiah.bmp	 Loacker.bmp	 40	 42	 1	 u	 2	 1	 719.24	 0.47	 0.39	 
BMI_bs_122	 4	 2	 02	 1	 27	 1.210183e+02	 Dubonim.bmp	 GumiSnakes3.bmp	 46	 50	 1	 u	 2	 1	 618.52	 0.01	 0.01	 
BMI_bs_122	 4	 2	 02	 1	 28	 1.240217e+02	 Bounty.bmp	 GumiWine2.bmp	 52	 48	 0	 i	 2	 1	 866.54	 0.01	 0.01	 
BMI_bs_122	 4	 2	 02	 1	 29	 1.300117e+02	 DoritosGrill.bmp	 CrunchShokoVanil.bmp	 49	 39	 1	 i	 2	 0	 1075.54	 0.01	 0.49	 
BMI_bs_122	 4	 2	 02	 1	 30	 1.340162e+02	 Loacker.bmp	 BagaleShtuhim.bmp	 42	 51	 0	 u	 2	 0	 783.71	 0.39	 0.01	 
BMI_bs_122	 4	 2	 02	 1	 31	 1.430096e+02	 Loacker.bmp	 SkittlesSour4.bmp	 42	 41	 0	 u	 2	 0	 846.99	 0.39	 0.47	 
BMI_bs_122	 4	 2	 02	 1	 32	 1.480152e+02	 Tictac.bmp	 GumiWine2.bmp	 45	 48	 0	 u	 2	 0	 1039.20	 0.02	 0.01	 
BMI_bs_122	 4	 2	 02	 1	 33	 1.570086e+02	 CrunchShokoVanil.bmp	 Dubonim.bmp	 39	 46	 0	 u	 2	 0	 899.85	 0.49	 0.01	 
BMI_bs_122	 4	 2	 02	 1	 34	 1.600120e+02	 Mentos.bmp	 HispusimShatiah.bmp	 44	 40	 0	 i	 2	 1	 742.89	 0.22	 0.47	 
BMI_bs_122	 4	 2	 02	 1	 35	 1.640165e+02	 Tictac.bmp	 DoritosGrill.bmp	 45	 49	 0	 u	 2	 0	 766.04	 0.02	 0.01	 
BMI_bs_122	 4	 2	 02	 1	 36	 1.700232e+02	 Popco.bmp	 HispusimShatiah.bmp	 53	 40	 0	 i	 2	 1	 890.86	 0.01	 0.47	 
BMI_bs_122	 4	 2	 02	 1	 37	 1.740110e+02	 ClickXLwhite4.bmp	 BisliOnion.bmp	 10	 22	 0	 u	 1	 0	 627.02	 1.88	 1.37	 
BMI_bs_122	 4	 2	 02	 1	 38	 1.810188e+02	 Popco.bmp	 Egozi.bmp	 53	 43	 0	 i	 2	 1	 628.24	 0.01	 0.38	 
BMI_bs_122	 4	 2	 02	 1	 39	 1.870089e+02	 Cheetos.bmp	 Twix.bmp	 8	 7	 1	 u	 1	 1	 668.52	 1.99	 2.01	 
BMI_bs_122	 4	 2	 02	 1	 40	 1.980212e+02	 Popco.bmp	 GumiWine2.bmp	 53	 48	 0	 u	 2	 0	 895.39	 0.01	 0.01	 
BMI_bs_122	 4	 2	 02	 1	 41	 2.030101e+02	 KinderJoy.bmp	 KifkefMaklot2.bmp	 19	 13	 1	 u	 1	 1	 586.70	 1.40	 1.67	 
BMI_bs_122	 4	 2	 02	 1	 42	 2.090169e+02	 KifkefMaklot2.bmp	 Cheetos.bmp	 13	 8	 0	 i	 1	 1	 576.54	 1.67	 1.99	 
BMI_bs_122	 4	 2	 02	 1	 43	 2.200125e+02	 KifkefMaklot2.bmp	 Twist.bmp	 13	 16	 0	 u	 1	 0	 685.12	 1.67	 1.45	 
BMI_bs_122	 4	 2	 02	 1	 44	 2.230159e+02	 KinderBuenoWhite2.bmp	 ClickXLbrown4.bmp	 15	 9	 0	 u	 1	 0	 696.94	 1.50	 1.89	 
BMI_bs_122	 4	 2	 02	 1	 45	 2.270204e+02	 ClickXLbrown4.bmp	 ChocolateParaMarir2.bmp	 9	 20	 1	 u	 1	 1	 1136.36	 1.89	 1.40	 
BMI_bs_122	 4	 2	 02	 1	 46	 2.380160e+02	 Cheetos.bmp	 BisliGrill.bmp	 8	 21	 1	 u	 1	 1	 929.92	 1.99	 1.37	 
BMI_bs_122	 4	 2	 02	 1	 47	 2.420205e+02	 KinderJoy.bmp	 Kitkat.bmp	 19	 18	 1	 u	 1	 1	 896.92	 1.40	 1.41	 
BMI_bs_122	 4	 2	 02	 1	 48	 2.450072e+02	 KinderJoy.bmp	 KinderBuenoWhite2.bmp	 19	 15	 1	 i	 1	 0	 824.11	 1.40	 1.50	 
BMI_bs_122	 4	 2	 02	 1	 49	 2.560195e+02	 BagaleShtuhim.bmp	 Tictac.bmp	 51	 45	 1	 u	 2	 1	 1096.03	 0.01	 0.02	 
BMI_bs_122	 4	 2	 02	 1	 50	 2.610084e+02	 Twist.bmp	 ChocolateParaCookies5.bmp	 16	 12	 1	 i	 1	 0	 742.34	 1.45	 1.80	 
BMI_bs_122	 4	 2	 02	 1	 51	 2.680163e+02	 BisliGrill.bmp	 ClickBalls5.bmp	 21	 11	 0	 i	 1	 1	 1114.84	 1.37	 1.85	 
BMI_bs_122	 4	 2	 02	 1	 52	 2.720208e+02	 Twist.bmp	 KinderBuenoWhite2.bmp	 16	 15	 1	 i	 1	 0	 643.00	 1.45	 1.50	 
BMI_bs_122	 4	 2	 02	 1	 53	 2.760086e+02	 Twist.bmp	 Kitkat.bmp	 16	 18	 1	 u	 1	 1	 761.63	 1.45	 1.41	 
BMI_bs_122	 4	 2	 02	 1	 54	 2.790119e+02	 Tictac.bmp	 HispusimShatiah.bmp	 45	 40	 0	 i	 2	 1	 660.88	 0.02	 0.47	 
BMI_bs_122	 4	 2	 02	 1	 55	 2.850186e+02	 Tapuchips.bmp	 Tictac.bmp	 54	 45	 1	 u	 2	 1	 639.48	 0.01	 0.02	 
BMI_bs_122	 4	 2	 02	 1	 56	 2.890231e+02	 ClickBalls5.bmp	 ClickXLwhite4.bmp	 11	 10	 1	 i	 1	 0	 718.92	 1.85	 1.88	 
BMI_bs_122	 4	 2	 02	 1	 57	 2.920098e+02	 Twix.bmp	 HappyHippo.bmp	 7	 17	 0	 u	 1	 0	 871.11	 2.01	 1.45	 
BMI_bs_122	 4	 2	 02	 1	 58	 2.990177e+02	 Egozi.bmp	 Mentos.bmp	 43	 44	 1	 u	 2	 1	 602.33	 0.38	 0.22	 
BMI_bs_122	 4	 2	 02	 1	 59	 3.030221e+02	 HispusimShatiah.bmp	 CrunchShokoVanil.bmp	 40	 39	 1	 u	 2	 1	 884.29	 0.47	 0.49	 
BMI_bs_122	 4	 2	 02	 1	 60	 3.060088e+02	 ClickXLwhite4.bmp	 HappyHippo.bmp	 10	 17	 0	 u	 1	 0	 822.74	 1.88	 1.45	 
BMI_bs_122	 4	 2	 02	 1	 61	 3.100133e+02	 ChocolateParaMarir2.bmp	 HappyHippo.bmp	 20	 17	 0	 u	 1	 0	 755.92	 1.40	 1.45	 
BMI_bs_122	 4	 2	 02	 1	 62	 3.130167e+02	 ClickXLbrown4.bmp	 KifkefMaklot2.bmp	 9	 13	 1	 u	 1	 1	 733.97	 1.89	 1.67	 
BMI_bs_122	 4	 2	 02	 1	 63	 3.170212e+02	 Dubonim.bmp	 Bounty.bmp	 46	 52	 1	 u	 2	 1	 745.92	 0.01	 0.01	 
BMI_bs_122	 4	 2	 02	 1	 64	 3.220101e+02	 Keifli.bmp	 BisliGrill.bmp	 14	 21	 1	 u	 1	 1	 617.23	 1.54	 1.37	 
BMI_bs_122	 4	 2	 02	 1	 65	 3.250134e+02	 ChocolateParaMarir2.bmp	 Keifli.bmp	 20	 14	 0	 i	 1	 1	 1079.01	 1.40	 1.54	 
BMI_bs_122	 4	 2	 02	 1	 66	 3.300190e+02	 ChocolateParaCookies5.bmp	 Cheetos.bmp	 12	 8	 0	 u	 1	 0	 854.87	 1.80	 1.99	 
BMI_bs_122	 4	 2	 02	 1	 67	 3.340068e+02	 Keifli.bmp	 Twix.bmp	 14	 7	 1	 u	 1	 1	 804.77	 1.54	 2.01	 
BMI_bs_122	 4	 2	 02	 1	 68	 3.380113e+02	 ChocolateParaCookies5.bmp	 ClickBalls5.bmp	 12	 11	 0	 u	 1	 0	 1210.50	 1.80	 1.85	 
