subjectID	scanner	order	block	run	trial	onsettime	ImageLeft	ImageRight	bidIndexLeft	bidIndexRight	IsleftGo	Response	PairType	Outcome	RT	bidLeft	bidRight	
BMI_bs_123	 4	 1	 01	 1	 1	 2.018319e+00	 Bamba.bmp	 Snickers.bmp	 45	 49	 1	 u	 2	 1	 912.25	 0.79	 0.59	 
BMI_bs_123	 4	 1	 01	 1	 2	 8.008360e+00	 Shugi.bmp	 SkittlesFruits2.bmp	 41	 53	 0	 u	 2	 0	 1267.49	 0.97	 0.35	 
BMI_bs_123	 4	 1	 01	 1	 3	 1.101173e+01	 HappyHippo.bmp	 BambaNugat.bmp	 43	 39	 0	 i	 2	 1	 1459.26	 0.81	 1.05	 
BMI_bs_123	 4	 1	 01	 1	 4	 1.401509e+01	 Kitkat.bmp	 ChocolateParaMilk3.bmp	 15	 9	 1	 u	 1	 1	 998.50	 1.41	 1.51	 
BMI_bs_123	 4	 1	 01	 1	 5	 1.701845e+01	 ChocolateParaSucariotKoftzot2.bmp	 Keifli.bmp	 17	 12	 0	 u	 1	 0	 1336.59	 1.34	 1.45	 
BMI_bs_123	 4	 1	 01	 1	 6	 2.102295e+01	 Snickers.bmp	 Twix.bmp	 49	 50	 0	 x	 2	 999	 999000.00	 0.59	 0.58	 
BMI_bs_123	 4	 1	 01	 1	 7	 2.901523e+01	 Shugi.bmp	 Twix.bmp	 41	 50	 0	 u	 2	 0	 826.56	 0.97	 0.58	 
BMI_bs_123	 4	 1	 01	 1	 8	 3.402083e+01	 ChocolateParaCookies5.bmp	 BisliOnion.bmp	 11	 13	 0	 u	 1	 0	 939.93	 1.49	 1.43	 
BMI_bs_123	 4	 1	 01	 1	 9	 3.900976e+01	 SkittlesFruits2.bmp	 Tictac.bmp	 53	 48	 1	 x	 2	 999	 999000.00	 0.35	 0.60	 
BMI_bs_123	 4	 1	 01	 1	 10	 4.201312e+01	 Bamba.bmp	 Tictac.bmp	 45	 48	 1	 u	 2	 1	 642.99	 0.79	 0.60	 
BMI_bs_123	 4	 1	 01	 1	 11	 4.501648e+01	 Smarties.bmp	 Snickers.bmp	 52	 49	 1	 u	 2	 1	 1037.30	 0.38	 0.59	 
BMI_bs_123	 4	 1	 01	 1	 12	 5.102321e+01	 BambaSweet.bmp	 Dubonim.bmp	 42	 40	 1	 u	 2	 1	 757.09	 0.83	 0.97	 
BMI_bs_123	 4	 1	 01	 1	 13	 5.501101e+01	 DoritosGrill.bmp	 TapuchipsCrunch.bmp	 20	 22	 1	 i	 1	 0	 1460.73	 1.29	 1.27	 
BMI_bs_123	 4	 1	 01	 1	 14	 5.801438e+01	 Kitkat.bmp	 ClickBalls5.bmp	 15	 8	 1	 u	 1	 1	 808.73	 1.41	 1.52	 
BMI_bs_123	 4	 1	 01	 1	 15	 6.301998e+01	 BisliGrill.bmp	 CrunchBisquitWhite2.bmp	 38	 6	 0	 i	 4	 1	 933.36	 1.07	 1.54	 
BMI_bs_123	 4	 1	 01	 1	 16	 7.001114e+01	 ChocolateParaCookies5.bmp	 Apropo.bmp	 11	 18	 0	 u	 1	 0	 1018.77	 1.49	 1.31	 
BMI_bs_123	 4	 1	 01	 1	 17	 7.301451e+01	 HappyHippo.bmp	 BambaSweet.bmp	 43	 42	 0	 u	 2	 0	 1176.79	 0.81	 0.83	 
BMI_bs_123	 4	 1	 01	 1	 18	 8.202462e+01	 Mars.bmp	 BisliGrill.bmp	 23	 38	 1	 i	 4	 0	 1088.36	 1.23	 1.07	 
BMI_bs_123	 4	 1	 01	 1	 19	 8.501129e+01	 ChocolateParaMilk3.bmp	 ChocolateParaMarir2.bmp	 9	 7	 0	 i	 1	 1	 1150.55	 1.51	 1.53	 
BMI_bs_123	 4	 1	 01	 1	 20	 9.101801e+01	 Smarties.bmp	 Dubonim.bmp	 52	 40	 1	 i	 2	 0	 1140.38	 0.38	 0.97	 
BMI_bs_123	 4	 1	 01	 1	 21	 9.602362e+01	 Kitkat.bmp	 ClickXLbrown4.bmp	 15	 19	 1	 u	 1	 1	 792.48	 1.41	 1.29	 
BMI_bs_123	 4	 1	 01	 1	 22	 9.901029e+01	 Twix.bmp	 KashitSour.bmp	 50	 54	 1	 u	 2	 1	 1349.72	 0.58	 0.25	 
BMI_bs_123	 4	 1	 01	 1	 23	 1.060182e+02	 Twix.bmp	 Tictac.bmp	 50	 48	 1	 u	 2	 1	 1148.41	 0.58	 0.60	 
BMI_bs_123	 4	 1	 01	 1	 24	 1.110238e+02	 Popco.bmp	 Tictac.bmp	 47	 48	 1	 u	 2	 1	 1081.81	 0.64	 0.60	 
BMI_bs_123	 4	 1	 01	 1	 25	 1.170138e+02	 Dubonim.bmp	 BambaNugat.bmp	 40	 39	 0	 i	 2	 1	 1043.28	 0.97	 1.05	 
BMI_bs_123	 4	 1	 01	 1	 26	 1.210183e+02	 Bamba.bmp	 Halva2.bmp	 45	 51	 1	 u	 2	 1	 931.48	 0.79	 0.42	 
BMI_bs_123	 4	 1	 01	 1	 27	 1.250228e+02	 ClickBlackWhite3.bmp	 CrunchBisquitBrown3.bmp	 16	 10	 0	 i	 1	 1	 842.17	 1.35	 1.51	 
BMI_bs_123	 4	 1	 01	 1	 28	 1.280094e+02	 ChocolateParaMarir2.bmp	 ChocolateParaCookies5.bmp	 7	 11	 1	 x	 1	 999	 999000.00	 1.53	 1.49	 
BMI_bs_123	 4	 1	 01	 1	 29	 1.310128e+02	 KashitSour.bmp	 BambaSweet.bmp	 54	 42	 0	 i	 2	 1	 1141.21	 0.25	 0.83	 
BMI_bs_123	 4	 1	 01	 1	 30	 1.360184e+02	 ClickXLbrown4.bmp	 BisliOnion.bmp	 19	 13	 0	 u	 1	 0	 894.53	 1.29	 1.43	 
BMI_bs_123	 4	 1	 01	 1	 31	 1.400229e+02	 ClickBalls5.bmp	 Apropo.bmp	 8	 18	 0	 u	 1	 0	 917.73	 1.52	 1.31	 
BMI_bs_123	 4	 1	 01	 1	 32	 1.430096e+02	 TapuchipsCrunch.bmp	 BisliOnion.bmp	 22	 13	 0	 u	 1	 0	 923.67	 1.27	 1.43	 
BMI_bs_123	 4	 1	 01	 1	 33	 1.480152e+02	 Egozi.bmp	 Taami.bmp	 37	 24	 0	 u	 3	 0	 1183.38	 1.07	 1.23	 
BMI_bs_123	 4	 1	 01	 1	 34	 1.510186e+02	 Tictac.bmp	 BagaleShtuhim.bmp	 48	 44	 0	 i	 2	 1	 992.60	 0.60	 0.80	 
BMI_bs_123	 4	 1	 01	 1	 35	 1.550230e+02	 BabyDoll.bmp	 Taami.bmp	 56	 24	 0	 i	 3	 1	 937.04	 0.18	 1.23	 
BMI_bs_123	 4	 1	 01	 1	 36	 1.680209e+02	 ChocolateParaMilk3.bmp	 Apropo.bmp	 9	 18	 0	 u	 1	 0	 865.99	 1.51	 1.31	 
BMI_bs_123	 4	 1	 01	 1	 37	 1.740110e+02	 Apropo.bmp	 BisliPizza3.bmp	 18	 14	 1	 i	 1	 0	 962.47	 1.31	 1.43	 
BMI_bs_123	 4	 1	 01	 1	 38	 1.790166e+02	 Bamba.bmp	 KashitSour.bmp	 45	 54	 1	 u	 2	 1	 670.86	 0.79	 0.25	 
BMI_bs_123	 4	 1	 01	 1	 39	 1.850233e+02	 Halva2.bmp	 SkittlesFruits2.bmp	 51	 53	 0	 i	 2	 1	 1223.15	 0.42	 0.35	 
BMI_bs_123	 4	 1	 01	 1	 40	 1.880100e+02	 KinderBuenoBrown3.bmp	 ClickBlackWhite3.bmp	 21	 16	 1	 u	 1	 1	 779.08	 1.28	 1.35	 
BMI_bs_123	 4	 1	 01	 1	 41	 1.920145e+02	 ClickBlackWhite3.bmp	 Apropo.bmp	 16	 18	 0	 u	 1	 0	 1128.53	 1.35	 1.31	 
BMI_bs_123	 4	 1	 01	 1	 42	 1.970201e+02	 KinderJoy.bmp	 BagaleShtuhim.bmp	 46	 44	 0	 i	 2	 1	 1343.20	 0.72	 0.80	 
BMI_bs_123	 4	 1	 01	 1	 43	 2.030101e+02	 KinderBuenoBrown3.bmp	 TapuchipsCrunch.bmp	 21	 22	 1	 u	 1	 1	 764.64	 1.28	 1.27	 
BMI_bs_123	 4	 1	 01	 1	 44	 2.070146e+02	 ChocolateParaSucariotKoftzot2.bmp	 DoritosGrill.bmp	 17	 20	 0	 u	 1	 0	 1102.86	 1.34	 1.29	 
BMI_bs_123	 4	 1	 01	 1	 45	 2.170091e+02	 Snickers.bmp	 BambaSweet.bmp	 49	 42	 0	 u	 2	 0	 1335.04	 0.59	 0.83	 
BMI_bs_123	 4	 1	 01	 1	 46	 2.230159e+02	 CrunchBisquitBrown3.bmp	 ClickXLbrown4.bmp	 10	 19	 1	 u	 1	 1	 773.58	 1.51	 1.29	 
BMI_bs_123	 4	 1	 01	 1	 47	 2.260192e+02	 Apropo.bmp	 ChocolateParaSucariotKoftzot2.bmp	 18	 17	 1	 i	 1	 0	 762.83	 1.31	 1.34	 
BMI_bs_123	 4	 1	 01	 1	 48	 2.300237e+02	 KashitSour.bmp	 BagaleShtuhim.bmp	 54	 44	 0	 i	 2	 1	 774.85	 0.25	 0.80	 
BMI_bs_123	 4	 1	 01	 1	 49	 2.390171e+02	 BambaSweet.bmp	 Shugi.bmp	 42	 41	 1	 i	 2	 0	 883.07	 0.83	 0.97	 
BMI_bs_123	 4	 1	 01	 1	 50	 2.430216e+02	 BambaNugat.bmp	 Shugi.bmp	 39	 41	 1	 u	 2	 1	 804.99	 1.05	 0.97	 
BMI_bs_123	 4	 1	 01	 1	 51	 2.460083e+02	 BambaNugat.bmp	 Halva2.bmp	 39	 51	 1	 u	 2	 1	 945.96	 1.05	 0.42	 
BMI_bs_123	 4	 1	 01	 1	 52	 2.510139e+02	 ClickXLbrown4.bmp	 DoritosGrill.bmp	 19	 20	 0	 u	 1	 0	 1261.83	 1.29	 1.29	 
BMI_bs_123	 4	 1	 01	 1	 53	 2.560195e+02	 ClickBalls5.bmp	 DoritosGrill.bmp	 8	 20	 0	 u	 1	 0	 1093.99	 1.52	 1.29	 
BMI_bs_123	 4	 1	 01	 1	 54	 2.600240e+02	 ChocolateParaMilk3.bmp	 DoritosGrill.bmp	 9	 20	 0	 u	 1	 0	 723.40	 1.51	 1.29	 
BMI_bs_123	 4	 1	 01	 1	 55	 2.640118e+02	 CrunchBisquitBrown3.bmp	 TapuchipsCrunch.bmp	 10	 22	 1	 u	 1	 1	 875.78	 1.51	 1.27	 
BMI_bs_123	 4	 1	 01	 1	 56	 2.690174e+02	 Tictac.bmp	 BambaNugat.bmp	 48	 39	 0	 i	 2	 1	 752.88	 0.60	 1.05	 
BMI_bs_123	 4	 1	 01	 1	 57	 2.720207e+02	 BagaleShtuhim.bmp	 Halva2.bmp	 44	 51	 1	 u	 2	 1	 697.16	 0.80	 0.42	 
BMI_bs_123	 4	 1	 01	 1	 58	 2.800130e+02	 Keifli.bmp	 ClickBlackWhite3.bmp	 12	 16	 1	 i	 1	 0	 929.04	 1.45	 1.35	 
BMI_bs_123	 4	 1	 01	 1	 59	 2.860198e+02	 ChocolateParaMarir2.bmp	 ClickBlackWhite3.bmp	 7	 16	 1	 u	 1	 1	 896.31	 1.53	 1.35	 
BMI_bs_123	 4	 1	 01	 1	 60	 2.960143e+02	 HappyHippo.bmp	 Bamba.bmp	 43	 45	 0	 i	 2	 1	 1072.28	 0.81	 0.79	 
BMI_bs_123	 4	 1	 01	 1	 61	 2.990177e+02	 KinderBuenoBrown3.bmp	 BisliPizza3.bmp	 21	 14	 1	 u	 1	 1	 701.48	 1.28	 1.43	 
BMI_bs_123	 4	 1	 01	 1	 62	 3.030221e+02	 BisliOnion.bmp	 BisliPizza3.bmp	 13	 14	 1	 i	 1	 0	 927.20	 1.43	 1.43	 
BMI_bs_123	 4	 1	 01	 1	 63	 3.060088e+02	 Bamba.bmp	 KinderJoy.bmp	 45	 46	 1	 u	 2	 1	 753.19	 0.79	 0.72	 
BMI_bs_123	 4	 1	 01	 1	 64	 3.170212e+02	 Apropo.bmp	 TapuchipsCrunch.bmp	 18	 22	 1	 i	 1	 0	 845.09	 1.31	 1.27	 
BMI_bs_123	 4	 1	 01	 1	 65	 3.230112e+02	 Snickers.bmp	 BagaleShtuhim.bmp	 49	 44	 0	 i	 2	 1	 907.81	 0.59	 0.80	 
BMI_bs_123	 4	 1	 01	 1	 66	 3.300190e+02	 Apropo.bmp	 ClickXLbrown4.bmp	 18	 19	 1	 i	 1	 0	 886.55	 1.31	 1.29	 
BMI_bs_123	 4	 1	 01	 1	 67	 3.350246e+02	 KinderJoy.bmp	 Popco.bmp	 46	 47	 0	 i	 2	 1	 932.45	 0.72	 0.64	 
BMI_bs_123	 4	 1	 01	 1	 68	 3.380113e+02	 BisliPizza3.bmp	 Keifli.bmp	 14	 12	 0	 u	 1	 0	 1129.66	 1.43	 1.45	 
