subjectID	scanner	order	block	run	trial	onsettime	ImageLeft	ImageRight	bidIndexLeft	bidIndexRight	IsleftGo	Response	PairType	Outcome	RT	bidLeft	bidRight	
BMI_bs_119	 4	 1	 01	 2	 1	 2.018454e+00	 GumiWine2.bmp	 SkittlesSour4.bmp	 55	 6	 0	 i	 4	 1	 962.20	 0.39	 2.97	 
BMI_bs_119	 4	 1	 01	 2	 2	 5.005145e+00	 DoritosSourSpicy.bmp	 Taami.bmp	 7	 8	 1	 i	 1	 0	 1125.67	 2.96	 2.95	 
BMI_bs_119	 4	 1	 01	 2	 3	 9.009621e+00	 Mars.bmp	 Snickers.bmp	 15	 11	 1	 i	 1	 0	 1205.17	 2.78	 2.84	 
BMI_bs_119	 4	 1	 01	 2	 4	 1.501636e+01	 ClickBalls5.bmp	 Keifli.bmp	 12	 22	 1	 u	 1	 1	 992.39	 2.83	 2.30	 
BMI_bs_119	 4	 1	 01	 2	 5	 2.100640e+01	 Keifli.bmp	 DoritosSourSpicy.bmp	 22	 7	 0	 i	 1	 1	 863.87	 2.30	 2.96	 
BMI_bs_119	 4	 1	 01	 2	 6	 2.601200e+01	 ClickBisquit2.bmp	 Snickers.bmp	 10	 11	 1	 u	 1	 1	 921.01	 2.84	 2.84	 
BMI_bs_119	 4	 1	 01	 2	 7	 3.001649e+01	 Taami.bmp	 PesekZman.bmp	 8	 13	 0	 u	 1	 0	 685.43	 2.95	 2.80	 
BMI_bs_119	 4	 1	 01	 2	 8	 3.500541e+01	 Tictac.bmp	 WerthersOriginal.bmp	 50	 46	 1	 i	 2	 0	 1029.28	 0.50	 0.97	 
BMI_bs_119	 4	 1	 01	 2	 9	 4.101214e+01	 ChocolateParaMarir2.bmp	 WerthersOriginal.bmp	 52	 46	 1	 i	 2	 0	 1131.61	 0.47	 0.97	 
BMI_bs_119	 4	 1	 01	 2	 10	 4.401550e+01	 SkittlesFruits2.bmp	 ClickBalls5.bmp	 9	 12	 0	 i	 1	 1	 794.56	 2.94	 2.83	 
BMI_bs_119	 4	 1	 01	 2	 11	 4.701887e+01	 Mars.bmp	 Egozi.bmp	 15	 17	 1	 u	 1	 1	 1132.64	 2.78	 2.62	 
BMI_bs_119	 4	 1	 01	 2	 12	 5.100666e+01	 ClickXLwhite4.bmp	 ChocolateParaCookies5.bmp	 20	 16	 1	 i	 1	 0	 801.26	 2.35	 2.75	 
BMI_bs_119	 4	 1	 01	 2	 13	 5.601228e+01	 Snickers.bmp	 KifkefMaklot2.bmp	 11	 21	 0	 u	 1	 0	 1049.60	 2.84	 2.32	 
BMI_bs_119	 4	 1	 01	 2	 14	 5.901564e+01	 DoritosSourSpicy.bmp	 Egozi.bmp	 7	 17	 1	 u	 1	 1	 1050.13	 2.96	 2.62	 
BMI_bs_119	 4	 1	 01	 2	 15	 6.201901e+01	 SkittlesFruits2.bmp	 PesekZman.bmp	 9	 13	 0	 i	 1	 1	 701.93	 2.94	 2.80	 
BMI_bs_119	 4	 1	 01	 2	 16	 6.600680e+01	 Egozi.bmp	 KifkefMaklot2.bmp	 17	 21	 0	 i	 1	 1	 1248.06	 2.62	 2.32	 
BMI_bs_119	 4	 1	 01	 2	 17	 8.000582e+01	 Keifli.bmp	 Mars.bmp	 22	 15	 0	 i	 1	 1	 1132.17	 2.30	 2.78	 
BMI_bs_119	 4	 1	 01	 2	 18	 8.801478e+01	 KinderBuenoWhite2.bmp	 ClickBisquit2.bmp	 14	 10	 0	 i	 1	 1	 728.55	 2.79	 2.84	 
BMI_bs_119	 4	 1	 01	 2	 19	 9.400482e+01	 KinderJoy.bmp	 Popco.bmp	 49	 53	 0	 u	 2	 0	 937.54	 0.85	 0.45	 
BMI_bs_119	 4	 1	 01	 2	 20	 9.700819e+01	 BambaNugat.bmp	 Loacker.bmp	 40	 44	 0	 u	 2	 0	 1039.34	 1.49	 1.31	 
BMI_bs_119	 4	 1	 01	 2	 21	 1.010127e+02	 Halva2.bmp	 ChocolateParaMarir2.bmp	 54	 52	 0	 i	 2	 1	 1242.53	 0.41	 0.47	 
BMI_bs_119	 4	 1	 01	 2	 22	 1.070194e+02	 KinderBuenoWhite2.bmp	 Mars.bmp	 14	 15	 0	 u	 1	 0	 1052.32	 2.79	 2.78	 
BMI_bs_119	 4	 1	 01	 2	 23	 1.100061e+02	 Popco.bmp	 Halva2.bmp	 53	 54	 1	 u	 2	 1	 844.55	 0.45	 0.41	 
BMI_bs_119	 4	 1	 01	 2	 24	 1.130094e+02	 BambaNugat.bmp	 HappyHippo.bmp	 40	 45	 0	 u	 2	 0	 946.34	 1.49	 1.23	 
BMI_bs_119	 4	 1	 01	 2	 25	 1.160128e+02	 Loacker.bmp	 ChocolateParaSucariotKoftzot2.bmp	 44	 43	 1	 i	 2	 0	 1093.06	 1.31	 1.38	 
BMI_bs_119	 4	 1	 01	 2	 26	 1.230207e+02	 ClickBalls5.bmp	 HispusimShatiah.bmp	 12	 19	 1	 u	 1	 1	 723.02	 2.83	 2.58	 
BMI_bs_119	 4	 1	 01	 2	 27	 1.260073e+02	 Halva2.bmp	 BabyDoll.bmp	 54	 39	 0	 i	 2	 1	 706.50	 0.41	 1.51	 
BMI_bs_119	 4	 1	 01	 2	 28	 1.290107e+02	 Smarties.bmp	 BambaNugat.bmp	 47	 40	 1	 i	 2	 0	 740.76	 0.87	 1.49	 
BMI_bs_119	 4	 1	 01	 2	 29	 1.340163e+02	 Taami.bmp	 ClickBisquit2.bmp	 8	 10	 0	 i	 1	 1	 741.65	 2.95	 2.84	 
BMI_bs_119	 4	 1	 01	 2	 30	 1.370197e+02	 Egozi.bmp	 PesekZman.bmp	 17	 13	 0	 i	 1	 1	 1372.25	 2.62	 2.80	 
BMI_bs_119	 4	 1	 01	 2	 31	 1.410075e+02	 ChocolateParaMarir2.bmp	 BagaleShtuhim.bmp	 52	 41	 1	 i	 2	 0	 1412.10	 0.47	 1.48	 
BMI_bs_119	 4	 1	 01	 2	 32	 1.470142e+02	 ClickXLwhite4.bmp	 KinderBuenoWhite2.bmp	 20	 14	 1	 i	 1	 0	 963.13	 2.35	 2.79	 
BMI_bs_119	 4	 1	 01	 2	 33	 1.500176e+02	 BambaNugat.bmp	 Popco.bmp	 40	 53	 0	 u	 2	 0	 716.13	 1.49	 0.45	 
BMI_bs_119	 4	 1	 01	 2	 34	 1.570087e+02	 KifkefMaklot2.bmp	 SkittlesFruits2.bmp	 21	 9	 1	 i	 1	 0	 1026.56	 2.32	 2.94	 
BMI_bs_119	 4	 1	 01	 2	 35	 1.620143e+02	 ChocolateParaCookies5.bmp	 Mars.bmp	 16	 15	 0	 i	 1	 1	 959.96	 2.75	 2.78	 
BMI_bs_119	 4	 1	 01	 2	 36	 1.660188e+02	 Tictac.bmp	 ChocolateParaSucariotKoftzot2.bmp	 50	 43	 1	 i	 2	 0	 915.63	 0.50	 1.38	 
BMI_bs_119	 4	 1	 01	 2	 37	 1.690055e+02	 BabyDoll.bmp	 WerthersOriginal.bmp	 39	 46	 1	 u	 2	 1	 887.82	 1.51	 0.97	 
BMI_bs_119	 4	 1	 01	 2	 38	 1.720089e+02	 ClickBisquit2.bmp	 SkittlesFruits2.bmp	 10	 9	 1	 u	 1	 1	 854.61	 2.84	 2.94	 
BMI_bs_119	 4	 1	 01	 2	 39	 1.820201e+02	 GumiSnakes3.bmp	 Mentos.bmp	 51	 42	 0	 i	 2	 1	 890.14	 0.49	 1.46	 
BMI_bs_119	 4	 1	 01	 2	 40	 1.930157e+02	 ChocolateParaMarir2.bmp	 Mekupelet.bmp	 52	 48	 1	 i	 2	 0	 762.50	 0.47	 0.87	 
BMI_bs_119	 4	 1	 01	 2	 41	 1.980046e+02	 Snickers.bmp	 ClickBalls5.bmp	 11	 12	 0	 i	 1	 1	 566.25	 2.84	 2.83	 
BMI_bs_119	 4	 1	 01	 2	 42	 2.070147e+02	 ChocolateParaCookies5.bmp	 PesekZman.bmp	 16	 13	 0	 u	 1	 0	 995.35	 2.75	 2.80	 
BMI_bs_119	 4	 1	 01	 2	 43	 2.100181e+02	 Halva2.bmp	 Smarties.bmp	 54	 47	 0	 i	 2	 1	 748.34	 0.41	 0.87	 
BMI_bs_119	 4	 1	 01	 2	 44	 2.150070e+02	 KinderBuenoWhite2.bmp	 DoritosSourSpicy.bmp	 14	 7	 0	 i	 1	 1	 810.90	 2.79	 2.96	 
BMI_bs_119	 4	 1	 01	 2	 45	 2.180104e+02	 BagaleShtuhim.bmp	 HappyHippo.bmp	 41	 45	 0	 i	 2	 1	 800.18	 1.48	 1.23	 
BMI_bs_119	 4	 1	 01	 2	 46	 2.270205e+02	 BambaNugat.bmp	 Tictac.bmp	 40	 50	 0	 u	 2	 0	 576.74	 1.49	 0.50	 
BMI_bs_119	 4	 1	 01	 2	 47	 2.370150e+02	 Popco.bmp	 WerthersOriginal.bmp	 53	 46	 1	 u	 2	 1	 640.23	 0.45	 0.97	 
BMI_bs_119	 4	 1	 01	 2	 48	 2.400183e+02	 CrunchShokoVanil.bmp	 Apropo.bmp	 37	 5	 0	 i	 3	 1	 843.21	 1.55	 2.97	 
BMI_bs_119	 4	 1	 01	 2	 49	 2.470095e+02	 Mentos.bmp	 WerthersOriginal.bmp	 42	 46	 1	 u	 2	 1	 917.37	 1.46	 0.97	 
BMI_bs_119	 4	 1	 01	 2	 50	 2.500129e+02	 GumiSnakes3.bmp	 Smarties.bmp	 51	 47	 0	 i	 2	 1	 794.14	 0.49	 0.87	 
BMI_bs_119	 4	 1	 01	 2	 51	 2.530162e+02	 Taami.bmp	 ClickBalls5.bmp	 8	 12	 0	 i	 1	 1	 502.16	 2.95	 2.83	 
BMI_bs_119	 4	 1	 01	 2	 52	 2.560196e+02	 ClickXLwhite4.bmp	 Snickers.bmp	 20	 11	 1	 i	 1	 0	 1020.24	 2.35	 2.84	 
BMI_bs_119	 4	 1	 01	 2	 53	 2.590063e+02	 KinderJoy.bmp	 Smarties.bmp	 49	 47	 0	 u	 2	 0	 621.15	 0.85	 0.87	 
BMI_bs_119	 4	 1	 01	 2	 54	 2.630108e+02	 Taami.bmp	 KifkefMaklot2.bmp	 8	 21	 0	 u	 1	 0	 486.86	 2.95	 2.32	 
BMI_bs_119	 4	 1	 01	 2	 55	 2.660141e+02	 Popco.bmp	 ChocolateParaSucariotKoftzot2.bmp	 53	 43	 1	 i	 2	 0	 993.65	 0.45	 1.38	 
BMI_bs_119	 4	 1	 01	 2	 56	 2.730053e+02	 Tictac.bmp	 GumiSnakes3.bmp	 50	 51	 1	 i	 2	 0	 606.54	 0.50	 0.49	 
BMI_bs_119	 4	 1	 01	 2	 57	 2.810143e+02	 Apropo.bmp	 BambaSweet.bmp	 5	 56	 1	 u	 3	 1	 675.42	 2.97	 0.27	 
BMI_bs_119	 4	 1	 01	 2	 58	 2.880054e+02	 BagaleShtuhim.bmp	 Loacker.bmp	 41	 44	 0	 i	 2	 1	 850.84	 1.48	 1.31	 
BMI_bs_119	 4	 1	 01	 2	 59	 2.970155e+02	 ClickBisquit2.bmp	 Egozi.bmp	 10	 17	 1	 u	 1	 1	 593.70	 2.84	 2.62	 
BMI_bs_119	 4	 1	 01	 2	 60	 3.060089e+02	 HispusimShatiah.bmp	 DoritosSourSpicy.bmp	 19	 7	 0	 i	 1	 1	 656.93	 2.58	 2.96	 
BMI_bs_119	 4	 1	 01	 2	 61	 3.110145e+02	 Mentos.bmp	 Mekupelet.bmp	 42	 48	 1	 u	 2	 1	 961.55	 1.46	 0.87	 
BMI_bs_119	 4	 1	 01	 2	 62	 3.140179e+02	 ChocolateParaMarir2.bmp	 ChocolateParaSucariotKoftzot2.bmp	 52	 43	 1	 i	 2	 0	 602.07	 0.47	 1.38	 
BMI_bs_119	 4	 1	 01	 2	 63	 3.170212e+02	 KifkefMaklot2.bmp	 HispusimShatiah.bmp	 21	 19	 1	 u	 1	 1	 1086.38	 2.32	 2.58	 
BMI_bs_119	 4	 1	 01	 2	 64	 3.200079e+02	 Smarties.bmp	 ChocolateParaSucariotKoftzot2.bmp	 47	 43	 1	 i	 2	 0	 856.06	 0.87	 1.38	 
BMI_bs_119	 4	 1	 01	 2	 65	 3.240124e+02	 BisliPizza3.bmp	 GumiWine2.bmp	 23	 55	 1	 u	 4	 1	 586.81	 2.07	 0.39	 
BMI_bs_119	 4	 1	 01	 2	 66	 3.310203e+02	 ChocolateParaMarir2.bmp	 GumiSnakes3.bmp	 52	 51	 1	 u	 2	 1	 959.27	 0.47	 0.49	 
BMI_bs_119	 4	 1	 01	 2	 67	 3.340069e+02	 Smarties.bmp	 BagaleShtuhim.bmp	 47	 41	 1	 i	 2	 0	 1055.26	 0.87	 1.48	 
BMI_bs_119	 4	 1	 01	 2	 68	 3.380114e+02	 KinderJoy.bmp	 BabyDoll.bmp	 49	 39	 0	 i	 2	 1	 763.37	 0.85	 1.51	 
