subjectID	scanner	order	block	run	trial	onsettime	ImageLeft	ImageRight	bidIndexLeft	bidIndexRight	IsleftGo	Response	PairType	Outcome	RT	bidLeft	bidRight	
BMI_bs_106	 4	 2	 01	 1	 1	 2.018325e+00	 Tictac.bmp	 Mars.bmp	 46	 50	 1	 i	 2	 0	 811.10	 0.41	 0.23	 
BMI_bs_106	 4	 2	 01	 1	 2	 8.008374e+00	 Snickers.bmp	 Halva2.bmp	 42	 54	 0	 u	 2	 0	 750.06	 0.59	 0.12	 
BMI_bs_106	 4	 2	 01	 1	 3	 1.101173e+01	 WerthersOriginal.bmp	 ClickXLbrown4.bmp	 44	 40	 0	 i	 2	 1	 784.36	 0.41	 0.79	 
BMI_bs_106	 4	 2	 01	 1	 4	 1.401509e+01	 HappyHippo.bmp	 BambaNugat.bmp	 16	 10	 1	 i	 1	 0	 582.41	 2.01	 2.06	 
BMI_bs_106	 4	 2	 01	 1	 5	 1.701845e+01	 CrunchBisquitWhite2.bmp	 PesekZman.bmp	 18	 11	 0	 i	 1	 1	 740.43	 1.98	 2.05	 
BMI_bs_106	 4	 2	 01	 1	 6	 2.102293e+01	 Mars.bmp	 Popco.bmp	 50	 49	 0	 i	 2	 1	 493.62	 0.23	 0.23	 
BMI_bs_106	 4	 2	 01	 1	 7	 2.901521e+01	 Snickers.bmp	 Popco.bmp	 42	 49	 0	 i	 2	 1	 567.95	 0.59	 0.23	 
BMI_bs_106	 4	 2	 01	 1	 8	 3.402081e+01	 SkittlesFruits2.bmp	 CrunchBisquitBrown3.bmp	 12	 14	 0	 u	 1	 0	 467.58	 2.03	 2.01	 
BMI_bs_106	 4	 2	 01	 1	 9	 3.900974e+01	 Halva2.bmp	 HispusimShatiah.bmp	 54	 47	 1	 i	 2	 0	 552.65	 0.12	 0.36	 
BMI_bs_106	 4	 2	 01	 1	 10	 4.201309e+01	 Tictac.bmp	 HispusimShatiah.bmp	 46	 47	 1	 i	 2	 0	 541.93	 0.41	 0.36	 
BMI_bs_106	 4	 2	 01	 1	 11	 4.501645e+01	 ChocolateParaMarir2.bmp	 Mars.bmp	 51	 50	 1	 u	 2	 1	 531.20	 0.22	 0.23	 
BMI_bs_106	 4	 2	 01	 1	 12	 5.102317e+01	 ChocolateParaCookies5.bmp	 GumiSnakes3.bmp	 41	 39	 1	 u	 2	 1	 768.54	 0.76	 0.84	 
BMI_bs_106	 4	 2	 01	 1	 13	 5.501097e+01	 Dubonim.bmp	 SkittlesSour4.bmp	 19	 21	 1	 u	 1	 1	 583.38	 1.98	 1.88	 
BMI_bs_106	 4	 2	 01	 1	 14	 5.801433e+01	 HappyHippo.bmp	 ClickBalls5.bmp	 16	 7	 1	 i	 1	 0	 685.22	 2.01	 2.29	 
BMI_bs_106	 4	 2	 01	 1	 15	 6.301993e+01	 KashitSour.bmp	 ClickBisquit2.bmp	 37	 5	 0	 i	 4	 1	 506.07	 0.87	 2.31	 
BMI_bs_106	 4	 2	 01	 1	 16	 7.001109e+01	 SkittlesFruits2.bmp	 Cheetos.bmp	 12	 17	 0	 i	 1	 1	 602.72	 2.03	 2.00	 
BMI_bs_106	 4	 2	 01	 1	 17	 7.301445e+01	 WerthersOriginal.bmp	 ChocolateParaCookies5.bmp	 44	 41	 0	 i	 2	 1	 625.80	 0.41	 0.76	 
BMI_bs_106	 4	 2	 01	 1	 18	 8.202452e+01	 KifkefMaklot2.bmp	 KashitSour.bmp	 24	 37	 1	 u	 4	 1	 1021.13	 1.66	 0.87	 
BMI_bs_106	 4	 2	 01	 1	 19	 8.501121e+01	 BambaNugat.bmp	 DoritosGrill.bmp	 10	 8	 0	 u	 1	 0	 858.30	 2.06	 2.23	 
BMI_bs_106	 4	 2	 01	 1	 20	 9.101793e+01	 ChocolateParaMarir2.bmp	 GumiSnakes3.bmp	 51	 39	 1	 i	 2	 0	 701.85	 0.22	 0.84	 
BMI_bs_106	 4	 2	 01	 1	 21	 9.602352e+01	 HappyHippo.bmp	 Keifli.bmp	 16	 20	 1	 u	 1	 1	 646.50	 2.01	 1.98	 
BMI_bs_106	 4	 2	 01	 1	 22	 9.901020e+01	 Popco.bmp	 BabyDoll.bmp	 49	 53	 1	 u	 2	 1	 764.96	 0.23	 0.18	 
BMI_bs_106	 4	 2	 01	 1	 23	 1.060180e+02	 Popco.bmp	 HispusimShatiah.bmp	 49	 47	 1	 u	 2	 1	 1036.21	 0.23	 0.36	 
BMI_bs_106	 4	 2	 01	 1	 24	 1.110236e+02	 Bounty.bmp	 HispusimShatiah.bmp	 48	 47	 1	 i	 2	 0	 834.57	 0.23	 0.36	 
BMI_bs_106	 4	 2	 01	 1	 25	 1.170137e+02	 GumiSnakes3.bmp	 ClickXLbrown4.bmp	 39	 40	 0	 i	 2	 1	 717.31	 0.84	 0.79	 
BMI_bs_106	 4	 2	 01	 1	 26	 1.210182e+02	 Tictac.bmp	 Tortit.bmp	 46	 52	 1	 i	 2	 0	 774.27	 0.41	 0.19	 
BMI_bs_106	 4	 2	 01	 1	 27	 1.250226e+02	 KinderBuenoWhite2.bmp	 CrunchShokoVanil.bmp	 15	 9	 0	 i	 1	 1	 955.00	 2.01	 2.07	 
BMI_bs_106	 4	 2	 01	 1	 28	 1.280093e+02	 DoritosGrill.bmp	 SkittlesFruits2.bmp	 8	 12	 1	 u	 1	 1	 735.94	 2.23	 2.03	 
BMI_bs_106	 4	 2	 01	 1	 29	 1.310127e+02	 BabyDoll.bmp	 ChocolateParaCookies5.bmp	 53	 41	 0	 i	 2	 1	 781.45	 0.18	 0.76	 
BMI_bs_106	 4	 2	 01	 1	 30	 1.360183e+02	 Keifli.bmp	 CrunchBisquitBrown3.bmp	 20	 14	 0	 i	 1	 1	 636.07	 1.98	 2.01	 
BMI_bs_106	 4	 2	 01	 1	 31	 1.400228e+02	 ClickBalls5.bmp	 Cheetos.bmp	 7	 17	 0	 u	 1	 0	 636.77	 2.29	 2.00	 
BMI_bs_106	 4	 2	 01	 1	 32	 1.430094e+02	 SkittlesSour4.bmp	 CrunchBisquitBrown3.bmp	 21	 14	 0	 i	 1	 1	 563.98	 1.88	 2.01	 
BMI_bs_106	 4	 2	 01	 1	 33	 1.480150e+02	 BagaleShtuhim.bmp	 TapuchipsCrunch.bmp	 38	 23	 0	 i	 3	 1	 699.86	 0.84	 1.67	 
BMI_bs_106	 4	 2	 01	 1	 34	 1.510184e+02	 HispusimShatiah.bmp	 ClickXLwhite4.bmp	 47	 43	 0	 i	 2	 1	 610.45	 0.36	 0.42	 
BMI_bs_106	 4	 2	 01	 1	 35	 1.550229e+02	 DoritosSourSpicy.bmp	 TapuchipsCrunch.bmp	 55	 23	 0	 i	 3	 1	 993.60	 0.08	 1.67	 
BMI_bs_106	 4	 2	 01	 1	 36	 1.680208e+02	 BambaNugat.bmp	 Cheetos.bmp	 10	 17	 0	 u	 1	 0	 618.89	 2.06	 2.00	 
BMI_bs_106	 4	 2	 01	 1	 37	 1.740108e+02	 Cheetos.bmp	 Egozi.bmp	 17	 13	 1	 u	 1	 1	 1030.33	 2.00	 2.02	 
BMI_bs_106	 4	 2	 01	 1	 38	 1.790164e+02	 Tictac.bmp	 BabyDoll.bmp	 46	 53	 1	 u	 2	 1	 659.97	 0.41	 0.18	 
BMI_bs_106	 4	 2	 01	 1	 39	 1.850231e+02	 Tortit.bmp	 Halva2.bmp	 52	 54	 0	 u	 2	 0	 706.02	 0.19	 0.12	 
BMI_bs_106	 4	 2	 01	 1	 40	 1.880098e+02	 Kitkat.bmp	 KinderBuenoWhite2.bmp	 22	 15	 1	 i	 1	 0	 655.73	 1.70	 2.01	 
BMI_bs_106	 4	 2	 01	 1	 41	 1.920143e+02	 KinderBuenoWhite2.bmp	 Cheetos.bmp	 15	 17	 0	 u	 1	 0	 1196.44	 2.01	 2.00	 
BMI_bs_106	 4	 2	 01	 1	 42	 1.970199e+02	 Smarties.bmp	 ClickXLwhite4.bmp	 45	 43	 0	 i	 2	 1	 747.33	 0.41	 0.42	 
BMI_bs_106	 4	 2	 01	 1	 43	 2.030099e+02	 Kitkat.bmp	 SkittlesSour4.bmp	 22	 21	 1	 u	 1	 1	 697.55	 1.70	 1.88	 
BMI_bs_106	 4	 2	 01	 1	 44	 2.070144e+02	 CrunchBisquitWhite2.bmp	 Dubonim.bmp	 18	 19	 0	 i	 1	 1	 878.29	 1.98	 1.98	 
BMI_bs_106	 4	 2	 01	 1	 45	 2.170089e+02	 Mars.bmp	 ChocolateParaCookies5.bmp	 50	 41	 0	 i	 2	 1	 1222.96	 0.23	 0.76	 
BMI_bs_106	 4	 2	 01	 1	 46	 2.230156e+02	 CrunchShokoVanil.bmp	 Keifli.bmp	 9	 20	 1	 i	 1	 0	 1077.77	 2.07	 1.98	 
BMI_bs_106	 4	 2	 01	 1	 47	 2.260190e+02	 Cheetos.bmp	 CrunchBisquitWhite2.bmp	 17	 18	 1	 i	 1	 0	 864.53	 2.00	 1.98	 
BMI_bs_106	 4	 2	 01	 1	 48	 2.300235e+02	 BabyDoll.bmp	 ClickXLwhite4.bmp	 53	 43	 0	 i	 2	 1	 651.49	 0.18	 0.42	 
BMI_bs_106	 4	 2	 01	 1	 49	 2.390169e+02	 ChocolateParaCookies5.bmp	 Snickers.bmp	 41	 42	 1	 u	 2	 1	 669.79	 0.76	 0.59	 
BMI_bs_106	 4	 2	 01	 1	 50	 2.430213e+02	 ClickXLbrown4.bmp	 Snickers.bmp	 40	 42	 1	 u	 2	 1	 726.72	 0.79	 0.59	 
BMI_bs_106	 4	 2	 01	 1	 51	 2.460247e+02	 ClickXLbrown4.bmp	 Tortit.bmp	 40	 52	 1	 u	 2	 1	 986.00	 0.79	 0.19	 
BMI_bs_106	 4	 2	 01	 1	 52	 2.510136e+02	 Keifli.bmp	 Dubonim.bmp	 20	 19	 0	 u	 1	 0	 958.55	 1.98	 1.98	 
BMI_bs_106	 4	 2	 01	 1	 53	 2.560192e+02	 ClickBalls5.bmp	 Dubonim.bmp	 7	 19	 0	 i	 1	 1	 1060.69	 2.29	 1.98	 
BMI_bs_106	 4	 2	 01	 1	 54	 2.600237e+02	 BambaNugat.bmp	 Dubonim.bmp	 10	 19	 0	 u	 1	 0	 1083.96	 2.06	 1.98	 
BMI_bs_106	 4	 2	 01	 1	 55	 2.640115e+02	 CrunchShokoVanil.bmp	 SkittlesSour4.bmp	 9	 21	 1	 i	 1	 0	 1258.80	 2.07	 1.88	 
BMI_bs_106	 4	 2	 01	 1	 56	 2.690171e+02	 HispusimShatiah.bmp	 ClickXLbrown4.bmp	 47	 40	 0	 i	 2	 1	 1270.95	 0.36	 0.79	 
BMI_bs_106	 4	 2	 01	 1	 57	 2.720204e+02	 ClickXLwhite4.bmp	 Tortit.bmp	 43	 52	 1	 x	 2	 999	 999000.00	 0.42	 0.19	 
BMI_bs_106	 4	 2	 01	 1	 58	 2.800127e+02	 PesekZman.bmp	 KinderBuenoWhite2.bmp	 11	 15	 1	 i	 1	 0	 918.28	 2.05	 2.01	 
BMI_bs_106	 4	 2	 01	 1	 59	 2.860194e+02	 DoritosGrill.bmp	 KinderBuenoWhite2.bmp	 8	 15	 1	 i	 1	 0	 626.83	 2.23	 2.01	 
BMI_bs_106	 4	 2	 01	 1	 60	 2.960140e+02	 WerthersOriginal.bmp	 Tictac.bmp	 44	 46	 0	 u	 2	 0	 780.30	 0.41	 0.41	 
BMI_bs_106	 4	 2	 01	 1	 61	 2.990173e+02	 Kitkat.bmp	 Egozi.bmp	 22	 13	 1	 i	 1	 0	 1388.33	 1.70	 2.02	 
BMI_bs_106	 4	 2	 01	 1	 62	 3.030218e+02	 CrunchBisquitBrown3.bmp	 Egozi.bmp	 14	 13	 1	 u	 1	 1	 624.01	 2.01	 2.02	 
BMI_bs_106	 4	 2	 01	 1	 63	 3.060252e+02	 Tictac.bmp	 Smarties.bmp	 46	 45	 1	 u	 2	 1	 995.81	 0.41	 0.41	 
BMI_bs_106	 4	 2	 01	 1	 64	 3.170208e+02	 Cheetos.bmp	 SkittlesSour4.bmp	 17	 21	 1	 u	 1	 1	 800.66	 2.00	 1.88	 
BMI_bs_106	 4	 2	 01	 1	 65	 3.230108e+02	 Mars.bmp	 ClickXLwhite4.bmp	 50	 43	 0	 x	 2	 999	 999000.00	 0.23	 0.42	 
BMI_bs_106	 4	 2	 01	 1	 66	 3.300187e+02	 Cheetos.bmp	 Keifli.bmp	 17	 20	 1	 u	 1	 1	 572.19	 2.00	 1.98	 
BMI_bs_106	 4	 2	 01	 1	 67	 3.350243e+02	 Smarties.bmp	 Bounty.bmp	 45	 48	 0	 i	 2	 1	 528.03	 0.41	 0.23	 
BMI_bs_106	 4	 2	 01	 1	 68	 3.380109e+02	 Egozi.bmp	 PesekZman.bmp	 13	 11	 0	 u	 1	 0	 432.73	 2.02	 2.05	 
