subjectID	scanner	order	block	run	trial	onsettime	ImageLeft	ImageRight	bidIndexLeft	bidIndexRight	IsleftGo	Response	PairType	Outcome	RT	bidLeft	bidRight	
BMI_bs_112	 4	 2	 02	 2	 1	 2.018468e+00	 Bamba.bmp	 BisliOnion.bmp	 44	 49	 0	 u	 2	 0	 664.85	 0.11	 0.05	 
BMI_bs_112	 4	 2	 02	 2	 2	 7.007381e+00	 Egozi.bmp	 Tapuchips.bmp	 22	 21	 1	 u	 1	 1	 592.39	 0.25	 0.27	 
BMI_bs_112	 4	 2	 02	 2	 3	 1.501635e+01	 Mekupelet.bmp	 CrunchBisquitWhite2.bmp	 16	 7	 1	 i	 1	 0	 560.04	 0.37	 0.55	 
BMI_bs_112	 4	 2	 02	 2	 4	 1.801971e+01	 DoritosSourSpicy.bmp	 Shugi.bmp	 51	 53	 1	 u	 2	 1	 684.34	 0.04	 0.03	 
BMI_bs_112	 4	 2	 02	 2	 5	 2.501087e+01	 Taami.bmp	 Bounty.bmp	 48	 52	 1	 u	 2	 1	 679.74	 0.07	 0.03	 
BMI_bs_112	 4	 2	 02	 2	 6	 2.801423e+01	 KinderJoy.bmp	 Tapuchips.bmp	 8	 21	 1	 u	 1	 1	 680.27	 0.49	 0.27	 
BMI_bs_112	 4	 2	 02	 2	 7	 3.900986e+01	 Shugi.bmp	 Popco.bmp	 53	 54	 0	 u	 2	 0	 518.91	 0.03	 0.03	 
BMI_bs_112	 4	 2	 02	 2	 8	 4.301435e+01	 Snickers.bmp	 ClickBisquit2.bmp	 15	 17	 0	 i	 1	 1	 632.06	 0.39	 0.36	 
BMI_bs_112	 4	 2	 02	 2	 9	 4.701884e+01	 Taami.bmp	 Shugi.bmp	 48	 53	 1	 u	 2	 1	 722.78	 0.07	 0.03	 
BMI_bs_112	 4	 2	 02	 2	 10	 5.000552e+01	 KashitSour.bmp	 Popco.bmp	 50	 54	 0	 i	 2	 1	 627.46	 0.04	 0.03	 
BMI_bs_112	 4	 2	 02	 2	 11	 5.300887e+01	 Bounty.bmp	 BagaleShtuhim.bmp	 52	 43	 0	 u	 2	 0	 819.28	 0.03	 0.11	 
BMI_bs_112	 4	 2	 02	 2	 12	 5.801448e+01	 KashitSour.bmp	 BagaleShtuhim.bmp	 50	 43	 0	 i	 2	 1	 572.62	 0.04	 0.11	 
BMI_bs_112	 4	 2	 02	 2	 13	 6.201897e+01	 Tapuchips.bmp	 ClickBisquit2.bmp	 21	 17	 0	 i	 1	 1	 640.84	 0.27	 0.36	 
BMI_bs_112	 4	 2	 02	 2	 14	 7.101236e+01	 KinderBuenoWhite2.bmp	 ClickBisquit2.bmp	 12	 17	 0	 i	 1	 1	 794.09	 0.41	 0.36	 
BMI_bs_112	 4	 2	 02	 2	 15	 7.401572e+01	 Bamba.bmp	 Popco.bmp	 44	 54	 0	 i	 2	 1	 659.63	 0.11	 0.03	 
BMI_bs_112	 4	 2	 02	 2	 16	 7.900464e+01	 GumiSnakes3.bmp	 BisliOnion.bmp	 45	 49	 0	 i	 2	 1	 1070.96	 0.09	 0.05	 
BMI_bs_112	 4	 2	 02	 2	 17	 8.501135e+01	 Kitkat.bmp	 ChocolateParaSucariotKoftzot2.bmp	 9	 20	 1	 u	 1	 1	 835.73	 0.48	 0.28	 
BMI_bs_112	 4	 2	 02	 2	 18	 8.801473e+01	 GumiWine2.bmp	 BambaSweet.bmp	 41	 42	 1	 i	 2	 0	 1083.77	 0.11	 0.11	 
BMI_bs_112	 4	 2	 02	 2	 19	 9.302032e+01	 Tortit.bmp	 GumiWine2.bmp	 39	 41	 0	 x	 2	 999	 999000.00	 0.12	 0.11	 
BMI_bs_112	 4	 2	 02	 2	 20	 9.700812e+01	 KashitSour.bmp	 Keifli.bmp	 50	 46	 0	 i	 2	 1	 922.03	 0.04	 0.09	 
BMI_bs_112	 4	 2	 02	 2	 21	 1.020137e+02	 Snickers.bmp	 HappyHippo.bmp	 15	 14	 0	 u	 1	 0	 1361.73	 0.39	 0.41	 
BMI_bs_112	 4	 2	 02	 2	 22	 1.070193e+02	 BagaleShtuhim.bmp	 GumiSnakes3.bmp	 43	 45	 1	 u	 2	 1	 755.05	 0.11	 0.09	 
BMI_bs_112	 4	 2	 02	 2	 23	 1.100060e+02	 Halva2.bmp	 KinderJoy.bmp	 18	 8	 0	 i	 1	 1	 1075.99	 0.33	 0.49	 
BMI_bs_112	 4	 2	 02	 2	 24	 1.130094e+02	 BambaSweet.bmp	 Keifli.bmp	 42	 46	 0	 u	 2	 0	 896.55	 0.11	 0.09	 
BMI_bs_112	 4	 2	 02	 2	 25	 1.250061e+02	 KashitSour.bmp	 GumiWine2.bmp	 50	 41	 0	 u	 2	 0	 892.81	 0.04	 0.11	 
BMI_bs_112	 4	 2	 02	 2	 26	 1.290106e+02	 SkittlesSour4.bmp	 Twix.bmp	 13	 19	 0	 i	 1	 1	 848.53	 0.41	 0.31	 
BMI_bs_112	 4	 2	 02	 2	 27	 1.320140e+02	 Kitkat.bmp	 Halva2.bmp	 9	 18	 1	 u	 1	 1	 759.01	 0.48	 0.33	 
BMI_bs_112	 4	 2	 02	 2	 28	 1.390051e+02	 SkittlesSour4.bmp	 Egozi.bmp	 13	 22	 0	 i	 1	 1	 776.93	 0.41	 0.25	 
BMI_bs_112	 4	 2	 02	 2	 29	 1.420085e+02	 GumiSnakes3.bmp	 Keifli.bmp	 45	 46	 0	 i	 2	 1	 934.96	 0.09	 0.09	 
BMI_bs_112	 4	 2	 02	 2	 30	 1.490163e+02	 Snickers.bmp	 Kitkat.bmp	 15	 9	 0	 i	 1	 1	 767.44	 0.39	 0.48	 
BMI_bs_112	 4	 2	 02	 2	 31	 1.540053e+02	 ChocolateParaSucariotKoftzot2.bmp	 ChocolateParaMilk3.bmp	 20	 11	 0	 i	 1	 1	 965.00	 0.28	 0.45	 
BMI_bs_112	 4	 2	 02	 2	 32	 1.580097e+02	 KashitSour.bmp	 BisliOnion.bmp	 50	 49	 0	 x	 2	 999	 999000.00	 0.04	 0.05	 
BMI_bs_112	 4	 2	 02	 2	 33	 1.630153e+02	 ChocolateParaMarir2.bmp	 Twix.bmp	 10	 19	 0	 i	 1	 1	 786.56	 0.46	 0.31	 
BMI_bs_112	 4	 2	 02	 2	 34	 1.690054e+02	 Mekupelet.bmp	 Snickers.bmp	 16	 15	 1	 i	 1	 0	 883.08	 0.37	 0.39	 
BMI_bs_112	 4	 2	 02	 2	 35	 1.730099e+02	 TapuchipsCrunch.bmp	 KashitSour.bmp	 40	 50	 1	 u	 2	 1	 951.28	 0.11	 0.04	 
BMI_bs_112	 4	 2	 02	 2	 36	 1.760132e+02	 KinderJoy.bmp	 CrunchBisquitWhite2.bmp	 8	 7	 1	 i	 1	 0	 749.31	 0.49	 0.55	 
BMI_bs_112	 4	 2	 02	 2	 37	 1.790166e+02	 BambaSweet.bmp	 Taami.bmp	 42	 48	 0	 i	 2	 1	 918.58	 0.11	 0.07	 
BMI_bs_112	 4	 2	 02	 2	 38	 1.820199e+02	 BagaleShtuhim.bmp	 Tortit.bmp	 43	 39	 1	 i	 2	 0	 1245.38	 0.11	 0.12	 
BMI_bs_112	 4	 2	 02	 2	 39	 1.860078e+02	 Shugi.bmp	 BisliOnion.bmp	 53	 49	 0	 u	 2	 0	 812.69	 0.03	 0.05	 
BMI_bs_112	 4	 2	 02	 2	 40	 1.900122e+02	 Mekupelet.bmp	 Halva2.bmp	 16	 18	 1	 u	 1	 1	 768.41	 0.37	 0.33	 
BMI_bs_112	 4	 2	 02	 2	 41	 1.960189e+02	 BagaleShtuhim.bmp	 Mars.bmp	 43	 47	 1	 i	 2	 0	 589.48	 0.11	 0.07	 
BMI_bs_112	 4	 2	 02	 2	 42	 2.050123e+02	 ClickBalls5.bmp	 BambaNugat.bmp	 23	 55	 1	 i	 3	 0	 641.49	 0.25	 0.03	 
BMI_bs_112	 4	 2	 02	 2	 43	 2.080157e+02	 Twix.bmp	 Tapuchips.bmp	 19	 21	 1	 i	 1	 0	 642.08	 0.31	 0.27	 
BMI_bs_112	 4	 2	 02	 2	 44	 2.120202e+02	 CrunchBisquitWhite2.bmp	 ClickBisquit2.bmp	 7	 17	 0	 u	 1	 0	 721.50	 0.55	 0.36	 
BMI_bs_112	 4	 2	 02	 2	 45	 2.170091e+02	 Popco.bmp	 GumiSnakes3.bmp	 54	 45	 1	 u	 2	 1	 874.03	 0.03	 0.09	 
BMI_bs_112	 4	 2	 02	 2	 46	 2.200291e+02	 Snickers.bmp	 Egozi.bmp	 15	 22	 0	 u	 1	 0	 722.88	 0.39	 0.25	 
BMI_bs_112	 4	 2	 02	 2	 47	 2.240169e+02	 SkittlesFruits2.bmp	 Hit.bmp	 56	 24	 0	 i	 4	 1	 740.24	 0.03	 0.24	 
BMI_bs_112	 4	 2	 02	 2	 48	 2.340115e+02	 HappyHippo.bmp	 ChocolateParaMarir2.bmp	 14	 10	 1	 i	 1	 0	 657.43	 0.41	 0.46	 
BMI_bs_112	 4	 2	 02	 2	 49	 2.370148e+02	 TapuchipsCrunch.bmp	 Bounty.bmp	 40	 52	 1	 u	 2	 1	 1074.25	 0.11	 0.03	 
BMI_bs_112	 4	 2	 02	 2	 50	 2.470093e+02	 ChocolateParaMilk3.bmp	 Tapuchips.bmp	 11	 21	 1	 u	 1	 1	 732.65	 0.45	 0.27	 
BMI_bs_112	 4	 2	 02	 2	 51	 2.520150e+02	 Bamba.bmp	 Keifli.bmp	 44	 46	 0	 u	 2	 0	 924.81	 0.11	 0.09	 
BMI_bs_112	 4	 2	 02	 2	 52	 2.570206e+02	 GumiWine2.bmp	 Shugi.bmp	 41	 53	 1	 u	 2	 1	 666.89	 0.11	 0.03	 
BMI_bs_112	 4	 2	 02	 2	 53	 2.620095e+02	 SkittlesFruits2.bmp	 ChocolateParaCookies5.bmp	 56	 5	 0	 i	 4	 1	 662.00	 0.03	 0.59	 
BMI_bs_112	 4	 2	 02	 2	 54	 2.650128e+02	 TapuchipsCrunch.bmp	 Mars.bmp	 40	 47	 1	 i	 2	 0	 538.75	 0.11	 0.07	 
BMI_bs_112	 4	 2	 02	 2	 55	 2.690173e+02	 CrunchBisquitBrown3.bmp	 Twist.bmp	 6	 38	 1	 u	 3	 1	 674.46	 0.57	 0.13	 
BMI_bs_112	 4	 2	 02	 2	 56	 2.770096e+02	 Egozi.bmp	 Halva2.bmp	 22	 18	 1	 u	 1	 1	 917.56	 0.25	 0.33	 
BMI_bs_112	 4	 2	 02	 2	 57	 2.810141e+02	 ClickBisquit2.bmp	 ChocolateParaMarir2.bmp	 17	 10	 1	 i	 1	 0	 569.47	 0.36	 0.46	 
BMI_bs_112	 4	 2	 02	 2	 58	 2.840174e+02	 TapuchipsCrunch.bmp	 BambaSweet.bmp	 40	 42	 1	 u	 2	 1	 716.30	 0.11	 0.11	 
BMI_bs_112	 4	 2	 02	 2	 59	 2.870208e+02	 Twix.bmp	 CrunchBisquitWhite2.bmp	 19	 7	 1	 i	 1	 0	 581.80	 0.31	 0.55	 
BMI_bs_112	 4	 2	 02	 2	 60	 3.000187e+02	 Mekupelet.bmp	 SkittlesSour4.bmp	 16	 13	 1	 u	 1	 1	 657.00	 0.37	 0.41	 
BMI_bs_112	 4	 2	 02	 2	 61	 3.030220e+02	 SkittlesSour4.bmp	 ChocolateParaMilk3.bmp	 13	 11	 0	 i	 1	 1	 680.00	 0.41	 0.45	 
BMI_bs_112	 4	 2	 02	 2	 62	 3.070098e+02	 Mars.bmp	 BisliOnion.bmp	 47	 49	 0	 u	 2	 0	 708.69	 0.07	 0.05	 
BMI_bs_112	 4	 2	 02	 2	 63	 3.120154e+02	 KinderBuenoWhite2.bmp	 HappyHippo.bmp	 12	 14	 0	 u	 1	 0	 552.04	 0.41	 0.41	 
BMI_bs_112	 4	 2	 02	 2	 64	 3.210088e+02	 Twix.bmp	 Halva2.bmp	 19	 18	 1	 u	 1	 1	 761.54	 0.31	 0.33	 
BMI_bs_112	 4	 2	 02	 2	 65	 3.240122e+02	 Mars.bmp	 Popco.bmp	 47	 54	 0	 u	 2	 0	 593.31	 0.07	 0.03	 
BMI_bs_112	 4	 2	 02	 2	 66	 3.270156e+02	 ChocolateParaMilk3.bmp	 Snickers.bmp	 11	 15	 1	 u	 1	 1	 695.08	 0.45	 0.39	 
BMI_bs_112	 4	 2	 02	 2	 67	 3.330056e+02	 Popco.bmp	 Bounty.bmp	 54	 52	 1	 u	 2	 1	 904.07	 0.03	 0.03	 
BMI_bs_112	 4	 2	 02	 2	 68	 3.380112e+02	 Twix.bmp	 ChocolateParaSucariotKoftzot2.bmp	 19	 20	 1	 i	 1	 0	 589.96	 0.31	 0.28	 
