subjectID	scanner	order	block	run	trial	onsettime	ImageLeft	ImageRight	bidIndexLeft	bidIndexRight	IsleftGo	Response	PairType	Outcome	RT	bidLeft	bidRight
BMI_bff_121	0	1	01	1	1	2.018592e+00	316_saar_gidon.jpg	206_itzik_dalia.jpg	12	9	1	i	1	0	994.96	0.69	0.77
BMI_bff_121	0	1	01	1	2	5.005278e+00	215_rozbozov_yoel.jpg	118_yacimovich_shelly.jpg	18	16	1	i	1	0	1128.27	0.63	0.66
BMI_bff_121	0	1	01	1	3	1.201312e+01	306_gafni_moshe.jpg	317_shaked_ayelet.jpg	56	6	0	i	4	1	832.43	0.19	0.81
BMI_bff_121	0	1	01	1	4	1.601767e+01	213_perry_yaakov.jpg	313_lizman_yaakov.jpg	46	52	0	u	2	0	1227.88	0.30	0.26
BMI_bff_121	0	1	01	1	5	2.100653e+01	105_gilon_ilan.jpg	313_lizman_yaakov.jpg	48	52	0	u	2	0	831.03	0.28	0.26
BMI_bff_121	0	1	01	1	6	2.501112e+01	202_cahlon_moshe.jpg	106_herzog_yitzhak.jpg	7	8	1	u	1	1	714.43	0.80	0.80
BMI_bff_121	0	1	01	1	7	2.901562e+01	219_stern_eliezer.jpg	316_saar_gidon.jpg	11	12	0	i	1	1	701.94	0.70	0.69
BMI_bff_121	0	1	01	1	8	3.201899e+01	316_saar_gidon.jpg	106_herzog_yitzhak.jpg	12	8	1	u	1	1	690.56	0.69	0.80
BMI_bff_121	0	1	01	1	9	3.500567e+01	209_mitzna_amram.jpg	113_rosenthal_mickey.jpg	54	53	0	i	2	1	559.89	0.23	0.24
BMI_bff_121	0	1	01	1	10	4.001127e+01	103_cabel_eitan.jpg	218_shitrit_meir.jpg	44	51	1	i	2	0	674.29	0.37	0.26
BMI_bff_121	0	1	01	1	11	4.401578e+01	118_yacimovich_shelly.jpg	114_shafir_stav.jpg	16	10	0	u	1	0	701.78	0.66	0.73
BMI_bff_121	0	1	01	1	12	4.900468e+01	302_danon_danny.jpg	312_livnat_limor.jpg	20	19	0	u	5	0	752.87	0.59	0.62
BMI_bff_121	0	1	01	1	13	5.300918e+01	311_liberman_avigdor.jpg	114_shafir_stav.jpg	17	10	0	i	1	1	604.38	0.63	0.73
BMI_bff_121	0	1	01	1	14	5.601262e+01	204_galant_yoav.jpg	206_itzik_dalia.jpg	13	9	1	i	1	0	728.94	0.68	0.77
BMI_bff_121	0	1	01	1	15	6.001702e+01	110_nachman_shai.jpg	213_perry_yaakov.jpg	47	46	1	u	2	1	700.53	0.29	0.30
BMI_bff_121	0	1	01	1	16	6.600713e+01	112_peretz_amir.jpg	205_german_yael.jpg	39	41	1	i	6	0	1126.42	0.44	0.42
BMI_bff_121	0	1	01	1	17	7.301499e+01	113_rosenthal_mickey.jpg	105_gilon_ilan.jpg	53	48	1	u	2	1	678.56	0.24	0.28
BMI_bff_121	0	1	01	1	18	7.601837e+01	320_yaalon_moshe.jpg	105_gilon_ilan.jpg	45	48	1	u	2	1	827.19	0.35	0.28
BMI_bff_121	0	1	01	1	19	8.100728e+01	318_shalom_silvan.jpg	103_cabel_eitan.jpg	43	44	0	i	2	1	734.28	0.37	0.37
BMI_bff_121	0	1	01	1	20	8.601288e+01	106_herzog_yitzhak.jpg	204_galant_yoav.jpg	8	13	0	u	1	0	960.68	0.80	0.68
BMI_bff_121	0	1	01	1	21	9.201970e+01	106_herzog_yitzhak.jpg	215_rozbozov_yoel.jpg	8	18	0	u	1	0	849.85	0.80	0.63
BMI_bff_121	0	1	01	1	22	9.600755e+01	202_cahlon_moshe.jpg	315_regev_miri.jpg	7	14	1	i	1	0	814.01	0.80	0.68
BMI_bff_121	0	1	01	1	23	1.010132e+02	208_livnee_zipi.jpg	113_rosenthal_mickey.jpg	49	53	0	u	2	0	672.35	0.27	0.24
BMI_bff_121	0	1	01	1	24	1.080040e+02	108_khenin_dov.jpg	209_mitzna_amram.jpg	50	54	1	i	2	0	761.59	0.27	0.23
BMI_bff_121	0	1	01	1	25	1.130100e+02	114_shafir_stav.jpg	315_regev_miri.jpg	10	14	1	i	1	0	747.61	0.73	0.68
BMI_bff_121	0	1	01	1	26	1.180156e+02	311_liberman_avigdor.jpg	215_rozbozov_yoel.jpg	17	18	0	i	1	1	853.97	0.63	0.63
BMI_bff_121	0	1	01	1	27	1.210189e+02	110_nachman_shai.jpg	218_shitrit_meir.jpg	47	51	1	i	2	0	1002.62	0.29	0.26
BMI_bff_121	0	1	01	1	28	1.240056e+02	318_shalom_silvan.jpg	113_rosenthal_mickey.jpg	43	53	0	i	2	1	648.00	0.37	0.24
BMI_bff_121	0	1	01	1	29	1.300123e+02	102_beneliezer_binyamin.jpg	211_molla_shlomo.jpg	55	5	0	i	4	1	1033.20	0.22	0.82
BMI_bff_121	0	1	01	1	30	1.340168e+02	215_rozbozov_yoel.jpg	219_stern_eliezer.jpg	18	11	1	i	1	0	988.72	0.63	0.70
BMI_bff_121	0	1	01	1	31	1.430102e+02	215_rozbozov_yoel.jpg	206_itzik_dalia.jpg	18	9	1	i	1	0	771.31	0.63	0.77
BMI_bff_121	0	1	01	1	32	1.480159e+02	208_livnee_zipi.jpg	110_nachman_shai.jpg	49	47	0	i	2	1	1013.69	0.27	0.29
BMI_bff_121	0	1	01	1	33	1.570094e+02	208_livnee_zipi.jpg	103_cabel_eitan.jpg	49	44	0	u	2	0	804.18	0.27	0.37
BMI_bff_121	0	1	01	1	34	1.600128e+02	106_herzog_yitzhak.jpg	114_shafir_stav.jpg	8	10	0	i	1	1	856.79	0.80	0.73
BMI_bff_121	0	1	01	1	35	1.640173e+02	118_yacimovich_shelly.jpg	202_cahlon_moshe.jpg	16	7	0	i	1	1	604.31	0.66	0.80
BMI_bff_121	0	1	01	1	36	1.700073e+02	219_stern_eliezer.jpg	202_cahlon_moshe.jpg	11	7	0	i	1	1	806.29	0.70	0.80
BMI_bff_121	0	1	01	1	37	1.740118e+02	110_nachman_shai.jpg	209_mitzna_amram.jpg	47	54	1	u	2	1	809.78	0.29	0.23
BMI_bff_121	0	1	01	1	38	1.810197e+02	213_perry_yaakov.jpg	103_cabel_eitan.jpg	46	44	0	i	2	1	817.88	0.30	0.37
BMI_bff_121	0	1	01	1	39	1.870097e+02	108_khenin_dov.jpg	105_gilon_ilan.jpg	50	48	1	u	2	1	795.89	0.27	0.28
BMI_bff_121	0	1	01	1	40	1.980054e+02	312_livnat_limor.jpg	303_deri_arye.jpg	19	21	1	i	5	0	888.13	0.62	0.58
BMI_bff_121	0	1	01	1	41	2.030110e+02	313_lizman_yaakov.jpg	209_mitzna_amram.jpg	52	54	1	i	2	0	970.54	0.26	0.23
BMI_bff_121	0	1	01	1	42	2.090178e+02	309_katz_yisrael.jpg	107_horowitz_nitzan.jpg	42	40	1	i	6	0	1235.77	0.40	0.43
