subjectID	scanner	order	block	run	trial	onsettime	ImageLeft	ImageRight	bidIndexLeft	bidIndexRight	IsleftGo	Response	PairType	Outcome	RT	bidLeft	bidRight
BMI_bff_120	0	2	02	1	1	2.018445e+00	315_regev_miri.jpg	314_netanyahu.jpg	41	42	1	i	6	0	939.77	0.37	0.37
BMI_bff_120	0	2	02	1	2	7.024393e+00	210_mofaz_shaul.jpg	101_barak_ehud.jpg	7	11	0	u	1	0	1125.83	0.83	0.71
BMI_bff_120	0	2	02	1	3	1.503342e+01	116_shmuli_itzik.jpg	304_dicter_abraham.jpg	16	15	1	x	1	999	999000.00	0.67	0.68
BMI_bff_120	0	2	02	1	4	1.802015e+01	207_lapid_yair.jpg	119_zandberg_tamar.jpg	6	55	1	u	4	1	938.07	0.83	0.15
BMI_bff_120	0	2	02	1	5	2.502799e+01	308_hotovely_tzipi.jpg	303_deri_arye.jpg	47	54	0	u	2	0	1202.24	0.30	0.16
BMI_bff_120	0	2	02	1	6	2.803137e+01	308_hotovely_tzipi.jpg	120_zuabi_hanin.jpg	47	48	0	u	2	0	934.84	0.30	0.28
BMI_bff_120	0	2	02	1	7	3.902700e+01	306_gafni_moshe.jpg	314_netanyahu.jpg	40	42	1	x	6	999	999000.00	0.38	0.37
BMI_bff_120	0	2	02	1	8	4.303157e+01	215_rozbozov_yoel.jpg	307_hazan_oren.jpg	50	49	0	u	2	0	934.65	0.27	0.28
BMI_bff_120	0	2	02	1	9	4.701909e+01	304_dicter_abraham.jpg	219_stern_eliezer.jpg	15	14	0	u	1	0	1115.13	0.68	0.69
BMI_bff_120	0	2	02	1	10	5.002264e+01	220_tamnu_shata_penina.jpg	313_lizman_yaakov.jpg	51	52	1	u	2	1	911.58	0.27	0.22
BMI_bff_120	0	2	02	1	11	5.302606e+01	213_perry_yaakov.jpg	210_mofaz_shaul.jpg	9	7	1	i	1	0	932.15	0.81	0.83
BMI_bff_120	0	2	02	1	12	5.803167e+01	313_lizman_yaakov.jpg	312_livnat_limor.jpg	52	46	0	u	2	0	1022.55	0.22	0.30
BMI_bff_120	0	2	02	1	13	6.201925e+01	116_shmuli_itzik.jpg	210_mofaz_shaul.jpg	16	7	1	i	1	0	890.96	0.67	0.83
BMI_bff_120	0	2	02	1	14	7.102962e+01	110_nachman_shai.jpg	220_tamnu_shata_penina.jpg	45	51	0	u	2	0	1080.60	0.31	0.27
BMI_bff_120	0	2	02	1	15	7.403295e+01	316_saar_gidon.jpg	218_shitrit_meir.jpg	8	13	1	i	1	0	997.27	0.81	0.70
BMI_bff_120	0	2	02	1	16	7.902194e+01	106_herzog_yitzhak.jpg	217_shelach_ofer.jpg	21	19	1	u	5	1	1328.31	0.62	0.64
BMI_bff_120	0	2	02	1	17	8.502860e+01	210_mofaz_shaul.jpg	316_saar_gidon.jpg	7	8	0	u	1	0	697.62	0.83	0.81
BMI_bff_120	0	2	02	1	18	8.803197e+01	304_dicter_abraham.jpg	316_saar_gidon.jpg	15	8	0	i	1	1	990.25	0.68	0.81
BMI_bff_120	0	2	02	1	19	9.302103e+01	307_hazan_oren.jpg	108_khenin_dov.jpg	49	53	1	u	2	1	1217.20	0.28	0.17
BMI_bff_120	0	2	02	1	20	9.702540e+01	219_stern_eliezer.jpg	102_beneliezer_binyamin.jpg	14	12	1	u	1	1	1156.82	0.69	0.70
BMI_bff_120	0	2	02	1	21	1.020310e+02	212_olmert_ehud.jpg	317_shaked_ayelet.jpg	10	17	0	u	1	0	959.19	0.78	0.67
BMI_bff_120	0	2	02	1	22	1.070201e+02	101_barak_ehud.jpg	304_dicter_abraham.jpg	11	15	1	u	1	1	818.13	0.71	0.68
BMI_bff_120	0	2	02	1	23	1.100233e+02	313_lizman_yaakov.jpg	307_hazan_oren.jpg	52	49	0	u	2	0	1166.89	0.22	0.28
BMI_bff_120	0	2	02	1	24	1.130268e+02	215_rozbozov_yoel.jpg	220_tamnu_shata_penina.jpg	50	51	0	u	2	0	1019.43	0.27	0.27
BMI_bff_120	0	2	02	1	25	1.250236e+02	119_zandberg_tamar.jpg	103_cabel_eitan.jpg	55	5	0	i	4	1	982.62	0.15	0.84
BMI_bff_120	0	2	02	1	26	1.290280e+02	213_perry_yaakov.jpg	304_dicter_abraham.jpg	9	15	1	i	1	0	1042.23	0.81	0.68
BMI_bff_120	0	2	02	1	27	1.320314e+02	308_hotovely_tzipi.jpg	307_hazan_oren.jpg	47	49	0	u	2	0	1094.81	0.30	0.28
BMI_bff_120	0	2	02	1	28	1.390226e+02	317_shaked_ayelet.jpg	210_mofaz_shaul.jpg	17	7	1	i	1	0	1319.64	0.67	0.83
BMI_bff_120	0	2	02	1	29	1.420260e+02	214_piron_shai.jpg	309_katz_yisrael.jpg	22	20	0	x	5	999	999000.00	0.61	0.63
BMI_bff_120	0	2	02	1	30	1.490338e+02	313_lizman_yaakov.jpg	211_molla_shlomo.jpg	52	43	0	u	2	0	900.40	0.22	0.35
BMI_bff_120	0	2	02	1	31	1.540228e+02	201_baron_roni.jpg	211_molla_shlomo.jpg	44	43	0	u	2	0	1271.43	0.34	0.35
BMI_bff_120	0	2	02	1	32	1.580272e+02	317_shaked_ayelet.jpg	115_shimon_peres.jpg	17	18	1	i	1	0	843.02	0.67	0.65
BMI_bff_120	0	2	02	1	33	1.630329e+02	312_livnat_limor.jpg	308_hotovely_tzipi.jpg	46	47	1	i	2	0	853.38	0.30	0.30
BMI_bff_120	0	2	02	1	34	1.690229e+02	110_nachman_shai.jpg	312_livnat_limor.jpg	45	46	0	x	2	999	999000.00	0.31	0.30
BMI_bff_120	0	2	02	1	35	1.730275e+02	212_olmert_ehud.jpg	219_stern_eliezer.jpg	10	14	0	u	1	0	1146.78	0.78	0.69
BMI_bff_120	0	2	02	1	36	1.760308e+02	219_stern_eliezer.jpg	210_mofaz_shaul.jpg	14	7	1	i	1	0	839.41	0.69	0.83
BMI_bff_120	0	2	02	1	37	1.790341e+02	116_shmuli_itzik.jpg	115_shimon_peres.jpg	16	18	1	i	1	0	860.08	0.67	0.65
BMI_bff_120	0	2	02	1	38	1.820543e+02	313_lizman_yaakov.jpg	120_zuabi_hanin.jpg	52	48	0	u	2	0	863.97	0.22	0.28
BMI_bff_120	0	2	02	1	39	1.860253e+02	120_zuabi_hanin.jpg	215_rozbozov_yoel.jpg	48	50	1	i	2	0	780.91	0.28	0.27
BMI_bff_120	0	2	02	1	40	1.900299e+02	116_shmuli_itzik.jpg	218_shitrit_meir.jpg	16	13	1	i	1	0	1000.36	0.67	0.70
BMI_bff_120	0	2	02	1	41	1.960196e+02	308_hotovely_tzipi.jpg	220_tamnu_shata_penina.jpg	47	51	0	u	2	0	1074.65	0.30	0.27
BMI_bff_120	0	2	02	1	42	2.050301e+02	312_livnat_limor.jpg	215_rozbozov_yoel.jpg	46	50	1	u	2	1	1160.19	0.30	0.27
