subjectID	scanner	order	block	run	trial	onsettime	ImageLeft	ImageRight	bidIndexLeft	bidIndexRight	IsleftGo	Response	PairType	Outcome	RT	bidLeft	bidRight
BMI_bff_126	0	2	01	2	1	2.018821e+00	301_benet_naftali.jpg	217_shelach_ofer.jpg	12	16	0	u	1	0	970.72	0.75	0.67
BMI_bff_126	0	2	01	2	2	7.024357e+00	214_piron_shai.jpg	209_mitzna_amram.jpg	11	7	1	u	1	1	813.18	0.76	0.79
BMI_bff_126	0	2	01	2	3	1.501667e+01	214_piron_shai.jpg	206_itzik_dalia.jpg	11	13	1	u	1	1	820.87	0.76	0.73
BMI_bff_126	0	2	01	2	4	1.802003e+01	106_herzog_yitzhak.jpg	102_beneliezer_binyamin.jpg	44	43	0	i	2	1	1289.53	0.37	0.38
BMI_bff_126	0	2	01	2	5	2.502796e+01	105_gilon_ilan.jpg	104_galon_zahava.jpg	53	54	0	i	2	1	1433.58	0.20	0.20
BMI_bff_126	0	2	01	2	6	2.801468e+01	306_gafni_moshe.jpg	207_lapid_yair.jpg	8	15	1	u	1	1	782.85	0.78	0.71
BMI_bff_126	0	2	01	2	7	3.902706e+01	104_galon_zahava.jpg	106_herzog_yitzhak.jpg	54	44	1	i	2	0	1026.47	0.20	0.37
BMI_bff_126	0	2	01	2	8	4.301477e+01	304_dicter_abraham.jpg	104_galon_zahava.jpg	50	54	0	u	2	0	774.78	0.30	0.20
BMI_bff_126	0	2	01	2	9	4.701924e+01	203_cohen_meir.jpg	102_beneliezer_binyamin.jpg	45	43	0	i	2	1	810.31	0.36	0.38
BMI_bff_126	0	2	01	2	10	5.002261e+01	214_piron_shai.jpg	211_molla_shlomo.jpg	11	10	1	u	1	1	558.92	0.76	0.77
BMI_bff_126	0	2	01	2	11	5.302598e+01	305_erdan_gilad.jpg	217_shelach_ofer.jpg	18	16	0	i	1	1	923.56	0.64	0.67
BMI_bff_126	0	2	01	2	12	5.801491e+01	306_gafni_moshe.jpg	211_molla_shlomo.jpg	8	10	1	u	1	1	598.64	0.78	0.77
BMI_bff_126	0	2	01	2	13	6.201949e+01	304_dicter_abraham.jpg	117_tibi_ahmed.jpg	50	51	0	u	2	0	914.05	0.30	0.28
BMI_bff_126	0	2	01	2	14	7.101284e+01	118_yacimovich_shelly.jpg	304_dicter_abraham.jpg	46	50	1	i	2	0	1256.70	0.34	0.30
BMI_bff_126	0	2	01	2	15	7.401629e+01	217_shelach_ofer.jpg	211_molla_shlomo.jpg	16	10	1	u	1	1	733.25	0.67	0.77
BMI_bff_126	0	2	01	2	16	7.902187e+01	214_piron_shai.jpg	305_erdan_gilad.jpg	11	18	1	u	1	1	519.67	0.76	0.64
BMI_bff_126	0	2	01	2	17	8.501166e+01	216_sharom_ariel.jpg	319_steinitz_yuval.jpg	47	49	0	u	2	0	745.88	0.33	0.30
BMI_bff_126	0	2	01	2	18	8.801534e+01	319_steinitz_yuval.jpg	203_cohen_meir.jpg	49	45	1	u	2	1	1070.20	0.30	0.36
BMI_bff_126	0	2	01	2	19	9.302086e+01	214_piron_shai.jpg	207_lapid_yair.jpg	11	15	1	u	1	1	536.71	0.76	0.71
BMI_bff_126	0	2	01	2	20	9.702545e+01	219_stern_eliezer.jpg	205_german_yael.jpg	19	20	0	u	5	0	684.09	0.60	0.59
BMI_bff_126	0	2	01	2	21	1.020143e+02	212_olmert_ehud.jpg	203_cohen_meir.jpg	48	45	1	u	2	1	983.23	0.31	0.36
BMI_bff_126	0	2	01	2	22	1.070200e+02	312_livnat_limor.jpg	104_galon_zahava.jpg	52	54	0	u	2	0	1017.52	0.21	0.20
BMI_bff_126	0	2	01	2	23	1.100233e+02	116_shmuli_itzik.jpg	206_itzik_dalia.jpg	17	13	1	u	1	1	1014.27	0.66	0.73
BMI_bff_126	0	2	01	2	24	1.130266e+02	217_shelach_ofer.jpg	207_lapid_yair.jpg	16	15	1	u	1	1	674.90	0.67	0.71
BMI_bff_126	0	2	01	2	25	1.250234e+02	103_cabel_eitan.jpg	215_rozbozov_yoel.jpg	39	41	0	u	6	0	1078.12	0.41	0.38
BMI_bff_126	0	2	01	2	26	1.290279e+02	219_stern_eliezer.jpg	112_peretz_amir.jpg	19	21	0	u	5	0	777.62	0.60	0.57
BMI_bff_126	0	2	01	2	27	1.320146e+02	116_shmuli_itzik.jpg	209_mitzna_amram.jpg	17	7	1	u	1	1	582.91	0.66	0.79
BMI_bff_126	0	2	01	2	28	1.390226e+02	319_steinitz_yuval.jpg	105_gilon_ilan.jpg	49	53	1	u	2	1	942.97	0.30	0.20
BMI_bff_126	0	2	01	2	29	1.420259e+02	320_yaalon_moshe.jpg	103_cabel_eitan.jpg	40	39	1	u	6	1	1083.68	0.40	0.41
BMI_bff_126	0	2	01	2	30	1.490171e+02	301_benet_naftali.jpg	116_shmuli_itzik.jpg	12	17	0	u	1	0	604.48	0.75	0.66
BMI_bff_126	0	2	01	2	31	1.540227e+02	307_hazan_oren.jpg	305_erdan_gilad.jpg	9	18	1	u	1	1	710.84	0.77	0.64
BMI_bff_126	0	2	01	2	32	1.580272e+02	307_hazan_oren.jpg	301_benet_naftali.jpg	9	12	1	u	1	1	474.36	0.77	0.75
BMI_bff_126	0	2	01	2	33	1.630160e+02	106_herzog_yitzhak.jpg	319_steinitz_yuval.jpg	44	49	0	u	2	0	869.54	0.37	0.30
BMI_bff_126	0	2	01	2	34	1.690229e+02	304_dicter_abraham.jpg	319_steinitz_yuval.jpg	50	49	0	i	2	1	1230.70	0.30	0.30
BMI_bff_126	0	2	01	2	35	1.730273e+02	208_livnee_zipi.jpg	317_shaked_ayelet.jpg	55	6	0	i	4	1	906.25	0.16	0.83
BMI_bff_126	0	2	01	2	36	1.760141e+02	220_tamnu_shata_penina.jpg	119_zandberg_tamar.jpg	5	56	1	u	4	1	1111.46	0.83	0.15
BMI_bff_126	0	2	01	2	37	1.790174e+02	307_hazan_oren.jpg	207_lapid_yair.jpg	9	15	1	u	1	1	988.13	0.77	0.71
BMI_bff_126	0	2	01	2	38	1.820208e+02	206_itzik_dalia.jpg	302_danon_danny.jpg	13	14	0	i	1	1	712.76	0.73	0.72
BMI_bff_126	0	2	01	2	39	1.860252e+02	203_cohen_meir.jpg	117_tibi_ahmed.jpg	45	51	0	u	2	0	828.31	0.36	0.28
BMI_bff_126	0	2	01	2	40	1.900131e+02	216_sharom_ariel.jpg	102_beneliezer_binyamin.jpg	47	43	0	i	2	1	1128.49	0.33	0.38
BMI_bff_126	0	2	01	2	41	1.960198e+02	312_livnat_limor.jpg	102_beneliezer_binyamin.jpg	52	43	0	i	2	1	753.79	0.21	0.38
BMI_bff_126	0	2	01	2	42	2.050133e+02	105_gilon_ilan.jpg	102_beneliezer_binyamin.jpg	53	43	0	i	2	1	848.29	0.20	0.38
