subjectID	scanner	order	block	run	trial	onsettime	ImageLeft	ImageRight	bidIndexLeft	bidIndexRight	IsleftGo	Response	PairType	Outcome	RT	bidLeft	bidRight
BMI_bff_120	0	2	01	1	1	2.018582e+00	219_stern_eliezer.jpg	102_beneliezer_binyamin.jpg	14	12	1	u	1	1	1115.00	0.69	0.70
BMI_bff_120	0	2	01	1	2	5.022031e+00	201_baron_roni.jpg	312_livnat_limor.jpg	44	46	0	u	2	0	1135.59	0.34	0.30
BMI_bff_120	0	2	01	1	3	9.026454e+00	309_katz_yisrael.jpg	217_shelach_ofer.jpg	20	19	1	i	5	0	955.13	0.63	0.64
BMI_bff_120	0	2	01	1	4	1.501661e+01	116_shmuli_itzik.jpg	210_mofaz_shaul.jpg	16	7	1	i	1	0	844.98	0.67	0.83
BMI_bff_120	0	2	01	1	5	2.102333e+01	108_khenin_dov.jpg	120_zuabi_hanin.jpg	53	48	0	u	2	0	758.27	0.17	0.28
BMI_bff_120	0	2	01	1	6	2.601195e+01	110_nachman_shai.jpg	120_zuabi_hanin.jpg	45	48	0	u	2	0	785.64	0.31	0.28
BMI_bff_120	0	2	01	1	7	3.001678e+01	314_netanyahu.jpg	315_regev_miri.jpg	42	41	0	u	6	0	932.81	0.37	0.37
BMI_bff_120	0	2	01	1	8	3.502245e+01	210_mofaz_shaul.jpg	219_stern_eliezer.jpg	7	14	0	u	1	0	967.14	0.83	0.69
BMI_bff_120	0	2	01	1	9	4.101212e+01	304_dicter_abraham.jpg	213_perry_yaakov.jpg	15	9	0	u	1	0	809.46	0.68	0.81
BMI_bff_120	0	2	01	1	10	4.401582e+01	314_netanyahu.jpg	306_gafni_moshe.jpg	42	40	0	u	6	0	941.77	0.37	0.38
BMI_bff_120	0	2	01	1	11	4.701918e+01	304_dicter_abraham.jpg	317_shaked_ayelet.jpg	15	17	0	u	1	0	770.41	0.68	0.67
BMI_bff_120	0	2	01	1	12	5.102369e+01	120_zuabi_hanin.jpg	215_rozbozov_yoel.jpg	48	50	1	i	2	0	1237.90	0.28	0.27
BMI_bff_120	0	2	01	1	13	5.601241e+01	213_perry_yaakov.jpg	210_mofaz_shaul.jpg	9	7	1	i	1	0	1249.18	0.81	0.83
BMI_bff_120	0	2	01	1	14	5.901604e+01	308_hotovely_tzipi.jpg	211_molla_shlomo.jpg	47	43	0	u	2	0	1069.54	0.30	0.35
BMI_bff_120	0	2	01	1	15	6.201940e+01	307_hazan_oren.jpg	110_nachman_shai.jpg	49	45	1	i	2	0	1002.22	0.28	0.31
BMI_bff_120	0	2	01	1	16	6.602389e+01	211_molla_shlomo.jpg	110_nachman_shai.jpg	43	45	1	i	2	0	1413.70	0.35	0.31
BMI_bff_120	0	2	01	1	17	8.002298e+01	207_lapid_yair.jpg	119_zandberg_tamar.jpg	6	55	1	u	4	1	934.61	0.83	0.15
BMI_bff_120	0	2	01	1	18	8.801525e+01	219_stern_eliezer.jpg	304_dicter_abraham.jpg	14	15	1	i	1	0	1414.35	0.69	0.68
BMI_bff_120	0	2	01	1	19	9.402203e+01	219_stern_eliezer.jpg	212_olmert_ehud.jpg	14	10	1	i	1	0	751.56	0.69	0.78
BMI_bff_120	0	2	01	1	20	9.702542e+01	304_dicter_abraham.jpg	116_shmuli_itzik.jpg	15	16	0	u	1	0	868.18	0.68	0.67
BMI_bff_120	0	2	01	1	21	1.010132e+02	220_tamnu_shata_penina.jpg	313_lizman_yaakov.jpg	51	52	1	u	2	1	1168.43	0.27	0.22
BMI_bff_120	0	2	01	1	22	1.070200e+02	303_deri_arye.jpg	108_khenin_dov.jpg	54	53	1	u	2	1	1177.62	0.16	0.17
BMI_bff_120	0	2	01	1	23	1.100233e+02	116_shmuli_itzik.jpg	212_olmert_ehud.jpg	16	10	1	i	1	0	910.25	0.67	0.78
BMI_bff_120	0	2	01	1	24	1.130266e+02	201_baron_roni.jpg	220_tamnu_shata_penina.jpg	44	51	0	u	2	0	930.96	0.34	0.27
BMI_bff_120	0	2	01	1	25	1.160135e+02	220_tamnu_shata_penina.jpg	110_nachman_shai.jpg	51	45	1	x	2	999	999000.00	0.27	0.31
BMI_bff_120	0	2	01	1	26	1.230213e+02	106_herzog_yitzhak.jpg	214_piron_shai.jpg	21	22	1	u	5	1	664.27	0.62	0.61
BMI_bff_120	0	2	01	1	27	1.260247e+02	110_nachman_shai.jpg	303_deri_arye.jpg	45	54	0	u	2	0	1060.87	0.31	0.16
BMI_bff_120	0	2	01	1	28	1.290280e+02	312_livnat_limor.jpg	108_khenin_dov.jpg	46	53	1	u	2	1	1073.61	0.30	0.17
BMI_bff_120	0	2	01	1	29	1.340169e+02	115_shimon_peres.jpg	213_perry_yaakov.jpg	18	9	0	u	1	0	876.69	0.65	0.81
BMI_bff_120	0	2	01	1	30	1.370203e+02	313_lizman_yaakov.jpg	307_hazan_oren.jpg	52	49	0	u	2	0	905.27	0.22	0.28
BMI_bff_120	0	2	01	1	31	1.410248e+02	317_shaked_ayelet.jpg	210_mofaz_shaul.jpg	17	7	1	i	1	0	932.78	0.67	0.83
BMI_bff_120	0	2	01	1	32	1.470149e+02	308_hotovely_tzipi.jpg	220_tamnu_shata_penina.jpg	47	51	0	x	2	999	999000.00	0.30	0.27
BMI_bff_120	0	2	01	1	33	1.500182e+02	213_perry_yaakov.jpg	102_beneliezer_binyamin.jpg	9	12	1	u	1	1	1051.36	0.81	0.70
BMI_bff_120	0	2	01	1	34	1.570261e+02	313_lizman_yaakov.jpg	303_deri_arye.jpg	52	54	0	u	2	0	1139.45	0.22	0.16
BMI_bff_120	0	2	01	1	35	1.620150e+02	101_barak_ehud.jpg	102_beneliezer_binyamin.jpg	11	12	1	u	1	1	798.53	0.71	0.70
BMI_bff_120	0	2	01	1	36	1.660196e+02	304_dicter_abraham.jpg	316_saar_gidon.jpg	15	8	0	u	1	0	897.99	0.68	0.81
BMI_bff_120	0	2	01	1	37	1.690229e+02	316_saar_gidon.jpg	210_mofaz_shaul.jpg	8	7	1	u	1	1	1238.67	0.81	0.83
BMI_bff_120	0	2	01	1	38	1.720263e+02	215_rozbozov_yoel.jpg	307_hazan_oren.jpg	50	49	0	u	2	0	1195.27	0.27	0.28
BMI_bff_120	0	2	01	1	39	1.820210e+02	119_zandberg_tamar.jpg	103_cabel_eitan.jpg	55	5	0	i	4	1	936.61	0.15	0.84
BMI_bff_120	0	2	01	1	40	1.930166e+02	212_olmert_ehud.jpg	317_shaked_ayelet.jpg	10	17	0	u	1	0	1229.01	0.78	0.67
BMI_bff_120	0	2	01	1	41	1.980222e+02	312_livnat_limor.jpg	215_rozbozov_yoel.jpg	46	50	1	u	2	1	1215.36	0.30	0.27
BMI_bff_120	0	2	01	1	42	2.070156e+02	115_shimon_peres.jpg	317_shaked_ayelet.jpg	18	17	0	u	1	0	1046.04	0.65	0.67
