subjectID	scanner	order	block	run	trial	onsettime	ImageLeft	ImageRight	bidIndexLeft	bidIndexRight	IsleftGo	Response	PairType	Outcome	RT	bidLeft	bidRight
BMI_bff_109	0	1	02	2	1	2.018858e+00	110_nachman_shai.jpg	107_horowitz_nitzan.jpg	15	8	1	u	1	1	753.36	0.67	0.82
BMI_bff_109	0	1	02	2	2	5.005529e+00	109_michaeli_meirav.jpg	211_molla_shlomo.jpg	10	17	1	u	1	1	838.68	0.78	0.66
BMI_bff_109	0	1	02	2	3	9.010002e+00	307_hazan_oren.jpg	120_zuabi_hanin.jpg	54	53	0	i	2	1	882.22	0.21	0.22
BMI_bff_109	0	1	02	2	4	1.501677e+01	109_michaeli_meirav.jpg	217_shelach_ofer.jpg	10	16	1	u	1	1	763.45	0.78	0.67
BMI_bff_109	0	1	02	2	5	2.100688e+01	109_michaeli_meirav.jpg	106_herzog_yitzhak.jpg	10	14	1	u	1	1	909.33	0.78	0.68
BMI_bff_109	0	1	02	2	6	2.601250e+01	106_herzog_yitzhak.jpg	312_livnat_limor.jpg	14	18	0	u	1	0	975.72	0.68	0.65
BMI_bff_109	0	1	02	2	7	3.001686e+01	110_nachman_shai.jpg	211_molla_shlomo.jpg	15	17	1	u	1	1	995.35	0.67	0.66
BMI_bff_109	0	1	02	2	8	3.500576e+01	208_livnee_zipi.jpg	202_cahlon_moshe.jpg	9	7	0	u	1	0	814.46	0.80	0.83
BMI_bff_109	0	1	02	2	9	4.101253e+01	103_cabel_eitan.jpg	216_sharom_ariel.jpg	44	51	1	u	2	1	871.68	0.35	0.24
BMI_bff_109	0	1	02	2	10	4.401593e+01	220_tamnu_shata_penina.jpg	106_herzog_yitzhak.jpg	13	14	1	u	1	1	948.28	0.69	0.68
BMI_bff_109	0	1	02	2	11	4.701920e+01	115_shimon_peres.jpg	120_zuabi_hanin.jpg	43	53	0	i	2	1	881.02	0.35	0.22
BMI_bff_109	0	1	02	2	12	5.100712e+01	204_galant_yoav.jpg	302_danon_danny.jpg	47	46	1	u	2	1	1061.09	0.28	0.32
BMI_bff_109	0	1	02	2	13	5.601260e+01	208_livnee_zipi.jpg	109_michaeli_meirav.jpg	9	10	0	i	1	1	903.61	0.80	0.78
BMI_bff_109	0	1	02	2	14	5.901606e+01	106_herzog_yitzhak.jpg	215_rozbozov_yoel.jpg	14	12	0	i	1	1	980.15	0.68	0.73
BMI_bff_109	0	1	02	2	15	6.201943e+01	110_nachman_shai.jpg	106_herzog_yitzhak.jpg	15	14	1	u	1	1	1024.78	0.67	0.68
BMI_bff_109	0	1	02	2	16	6.600717e+01	103_cabel_eitan.jpg	214_piron_shai.jpg	44	48	1	u	2	1	1069.01	0.35	0.28
BMI_bff_109	0	1	02	2	17	8.000623e+01	318_shalom_silvan.jpg	112_peretz_amir.jpg	21	22	0	i	5	1	1229.99	0.62	0.62
BMI_bff_109	0	1	02	2	18	8.801523e+01	107_horowitz_nitzan.jpg	215_rozbozov_yoel.jpg	8	12	0	u	1	0	837.00	0.82	0.73
BMI_bff_109	0	1	02	2	19	9.400489e+01	107_horowitz_nitzan.jpg	109_michaeli_meirav.jpg	8	10	0	i	1	1	687.32	0.82	0.78
BMI_bff_109	0	1	02	2	20	9.700863e+01	211_molla_shlomo.jpg	202_cahlon_moshe.jpg	17	7	0	i	1	1	1139.59	0.66	0.83
BMI_bff_109	0	1	02	2	21	1.010131e+02	319_steinitz_yuval.jpg	212_olmert_ehud.jpg	41	42	0	u	6	0	1159.16	0.36	0.35
BMI_bff_109	0	1	02	2	22	1.070199e+02	302_danon_danny.jpg	305_erdan_gilad.jpg	46	52	0	i	2	1	952.32	0.32	0.24
BMI_bff_109	0	1	02	2	23	1.100066e+02	105_gilon_ilan.jpg	109_michaeli_meirav.jpg	11	10	0	i	1	1	1021.65	0.75	0.78
BMI_bff_109	0	1	02	2	24	1.130099e+02	317_shaked_ayelet.jpg	305_erdan_gilad.jpg	49	52	0	i	2	1	1170.31	0.27	0.24
BMI_bff_109	0	1	02	2	25	1.160132e+02	219_stern_eliezer.jpg	212_olmert_ehud.jpg	40	42	0	u	6	0	927.01	0.37	0.35
BMI_bff_109	0	1	02	2	26	1.230211e+02	115_shimon_peres.jpg	103_cabel_eitan.jpg	43	44	0	i	2	1	959.14	0.35	0.35
BMI_bff_109	0	1	02	2	27	1.260078e+02	120_zuabi_hanin.jpg	302_danon_danny.jpg	53	46	1	u	2	1	1004.40	0.22	0.32
BMI_bff_109	0	1	02	2	28	1.290111e+02	213_perry_yaakov.jpg	317_shaked_ayelet.jpg	45	49	1	u	2	1	905.09	0.33	0.27
BMI_bff_109	0	1	02	2	29	1.340167e+02	116_shmuli_itzik.jpg	314_netanyahu.jpg	5	56	1	u	4	1	867.52	0.87	0.19
BMI_bff_109	0	1	02	2	30	1.370201e+02	204_galant_yoav.jpg	307_hazan_oren.jpg	47	54	1	u	2	1	944.13	0.28	0.21
BMI_bff_109	0	1	02	2	31	1.410079e+02	215_rozbozov_yoel.jpg	208_livnee_zipi.jpg	12	9	1	i	1	0	1108.31	0.73	0.80
BMI_bff_109	0	1	02	2	32	1.470146e+02	303_deri_arye.jpg	214_piron_shai.jpg	50	48	1	i	2	0	1101.59	0.25	0.28
BMI_bff_109	0	1	02	2	33	1.500179e+02	318_shalom_silvan.jpg	209_mitzna_amram.jpg	21	19	0	i	5	1	1034.28	0.62	0.63
BMI_bff_109	0	1	02	2	34	1.570092e+02	305_erdan_gilad.jpg	115_shimon_peres.jpg	52	43	1	u	2	1	931.06	0.24	0.35
BMI_bff_109	0	1	02	2	35	1.620147e+02	118_yacimovich_shelly.jpg	314_netanyahu.jpg	6	56	1	u	4	1	1133.48	0.86	0.19
BMI_bff_109	0	1	02	2	36	1.660193e+02	202_cahlon_moshe.jpg	107_horowitz_nitzan.jpg	7	8	1	i	1	0	1224.96	0.83	0.82
BMI_bff_109	0	1	02	2	37	1.690059e+02	115_shimon_peres.jpg	303_deri_arye.jpg	43	50	0	u	2	0	1086.33	0.35	0.25
BMI_bff_109	0	1	02	2	38	1.720093e+02	120_zuabi_hanin.jpg	214_piron_shai.jpg	53	48	1	u	2	1	1250.91	0.22	0.28
BMI_bff_109	0	1	02	2	39	1.820204e+02	307_hazan_oren.jpg	305_erdan_gilad.jpg	54	52	0	i	2	1	871.85	0.21	0.24
BMI_bff_109	0	1	02	2	40	1.930161e+02	307_hazan_oren.jpg	213_perry_yaakov.jpg	54	45	0	i	2	1	852.12	0.21	0.33
BMI_bff_109	0	1	02	2	41	1.980047e+02	208_livnee_zipi.jpg	312_livnat_limor.jpg	9	18	0	u	1	0	1327.49	0.80	0.65
BMI_bff_109	0	1	02	2	42	2.070152e+02	305_erdan_gilad.jpg	214_piron_shai.jpg	52	48	1	i	2	0	1149.04	0.24	0.28
