subjectID	scanner	order	block	run	trial	onsettime	ImageLeft	ImageRight	bidIndexLeft	bidIndexRight	IsleftGo	Response	PairType	Outcome	RT	bidLeft	bidRight
BMI_bff_138	0	2	02	1	1	2.030920e+00	211_molla_shlomo.jpg	310_kirshenbaum_faina.jpg	44	46	0	x	2	999	999000.00	0.35	0.29
BMI_bff_138	0	2	02	1	2	5.017697e+00	206_hasson_israel.JPG	103_cabel_eitan.jpg	20	19	1	i	5	0	925.34	0.61	0.63
BMI_bff_138	0	2	02	1	3	1.202553e+01	211_molla_shlomo.jpg	111_odeh_aiman.jpg	44	54	0	x	2	999	999000.00	0.35	0.18
BMI_bff_138	0	2	02	1	4	1.602999e+01	205_german_yael.jpg	114_shafir_stav.jpg	41	39	1	i	6	0	753.04	0.38	0.44
BMI_bff_138	0	2	02	1	5	2.101897e+01	308_hotovely_tzipi.jpg	216_sharom_ariel.jpg	18	9	0	u	1	0	636.05	0.64	0.73
BMI_bff_138	0	2	02	1	6	2.502343e+01	112_peretz_amir.jpg	216_sharom_ariel.jpg	15	9	0	u	1	0	727.61	0.66	0.73
BMI_bff_138	0	2	02	1	7	2.902789e+01	111_odeh_aiman.jpg	303_deri_arye.jpg	54	45	1	i	2	0	675.14	0.18	0.31
BMI_bff_138	0	2	02	1	8	3.203129e+01	317_shaked_ayelet.jpg	203_cohen_meir.jpg	10	14	0	u	1	0	615.73	0.71	0.67
BMI_bff_138	0	2	02	1	9	3.501805e+01	304_dicter_abraham.jpg	201_baron_roni.jpg	43	53	1	u	2	1	892.98	0.35	0.22
BMI_bff_138	0	2	02	1	10	4.002368e+01	305_erdan_gilad.jpg	315_regev_miri.jpg	13	11	0	i	1	1	775.36	0.67	0.69
BMI_bff_138	0	2	02	1	11	4.402814e+01	318_shalom_silvan.jpg	219_stern_eliezer.jpg	55	5	0	i	4	1	866.88	0.18	0.82
BMI_bff_138	0	2	02	1	12	4.901681e+01	314_netanyahu.jpg	114_shafir_stav.jpg	40	39	1	i	6	0	694.22	0.41	0.44
BMI_bff_138	0	2	02	1	13	5.302154e+01	107_horowitz_nitzan.jpg	303_deri_arye.jpg	48	45	1	u	2	1	1409.48	0.28	0.31
BMI_bff_138	0	2	02	1	14	5.602487e+01	306_gafni_moshe.jpg	201_baron_roni.jpg	51	53	1	u	2	1	1246.16	0.27	0.22
BMI_bff_138	0	2	02	1	15	6.002940e+01	210_mofaz_shaul.jpg	217_shelach_ofer.jpg	16	12	1	u	1	1	689.64	0.66	0.69
BMI_bff_138	0	2	02	1	16	6.601958e+01	202_cahlon_moshe.jpg	217_shelach_ofer.jpg	8	12	1	u	1	1	915.45	0.77	0.69
BMI_bff_138	0	2	02	1	17	7.302739e+01	315_regev_miri.jpg	220_tamnu_shata_penina.jpg	11	7	1	i	1	0	819.66	0.69	0.81
BMI_bff_138	0	2	02	1	18	7.603076e+01	220_tamnu_shata_penina.jpg	216_sharom_ariel.jpg	7	9	0	u	1	0	816.27	0.81	0.73
BMI_bff_138	0	2	02	1	19	8.101966e+01	203_cohen_meir.jpg	112_peretz_amir.jpg	14	15	1	u	1	1	1139.36	0.67	0.66
BMI_bff_138	0	2	02	1	20	8.602522e+01	113_rosenthal_mickey.jpg	111_odeh_aiman.jpg	47	54	0	u	2	0	1221.81	0.29	0.18
BMI_bff_138	0	2	02	1	21	9.203196e+01	210_mofaz_shaul.jpg	220_tamnu_shata_penina.jpg	16	7	1	i	1	0	631.06	0.66	0.81
BMI_bff_138	0	2	02	1	22	9.601977e+01	111_odeh_aiman.jpg	201_baron_roni.jpg	54	53	1	i	2	0	771.53	0.18	0.22
BMI_bff_138	0	2	02	1	23	1.010255e+02	317_shaked_ayelet.jpg	210_mofaz_shaul.jpg	10	16	0	u	1	0	693.56	0.71	0.66
BMI_bff_138	0	2	02	1	24	1.080163e+02	220_tamnu_shata_penina.jpg	202_cahlon_moshe.jpg	7	8	0	u	1	0	526.71	0.81	0.77
BMI_bff_138	0	2	02	1	25	1.130223e+02	318_shalom_silvan.jpg	207_lapid_yair.jpg	55	6	0	i	4	1	1024.76	0.18	0.81
BMI_bff_138	0	2	02	1	26	1.180279e+02	303_deri_arye.jpg	306_gafni_moshe.jpg	45	51	0	u	2	0	1251.15	0.31	0.27
BMI_bff_138	0	2	02	1	27	1.210312e+02	203_cohen_meir.jpg	220_tamnu_shata_penina.jpg	14	7	1	i	1	0	615.84	0.67	0.81
BMI_bff_138	0	2	02	1	28	1.240180e+02	210_mofaz_shaul.jpg	308_hotovely_tzipi.jpg	16	18	1	i	1	0	981.02	0.66	0.64
BMI_bff_138	0	2	02	1	29	1.300247e+02	202_cahlon_moshe.jpg	308_hotovely_tzipi.jpg	8	18	1	i	1	0	606.36	0.77	0.64
BMI_bff_138	0	2	02	1	30	1.340291e+02	203_cohen_meir.jpg	305_erdan_gilad.jpg	14	13	1	x	1	999	999000.00	0.67	0.67
BMI_bff_138	0	2	02	1	31	1.430225e+02	208_livnee_zipi.jpg	111_odeh_aiman.jpg	52	54	0	i	2	1	688.50	0.26	0.18
BMI_bff_138	0	2	02	1	32	1.480282e+02	317_shaked_ayelet.jpg	202_cahlon_moshe.jpg	10	8	0	u	1	0	626.82	0.71	0.77
BMI_bff_138	0	2	02	1	33	1.570216e+02	113_rosenthal_mickey.jpg	117_tibi_ahmed.jpg	47	49	0	u	2	0	801.44	0.29	0.28
BMI_bff_138	0	2	02	1	34	1.600250e+02	303_deri_arye.jpg	310_kirshenbaum_faina.jpg	45	46	0	i	2	1	742.03	0.31	0.29
BMI_bff_138	0	2	02	1	35	1.640295e+02	101_barak_ehud.jpg	117_tibi_ahmed.jpg	50	49	0	u	2	0	1089.50	0.27	0.28
BMI_bff_138	0	2	02	1	36	1.700195e+02	310_kirshenbaum_faina.jpg	113_rosenthal_mickey.jpg	46	47	1	u	2	1	699.50	0.29	0.29
BMI_bff_138	0	2	02	1	37	1.740240e+02	103_cabel_eitan.jpg	115_shimon_peres.jpg	19	21	0	u	5	0	1007.04	0.63	0.60
BMI_bff_138	0	2	02	1	38	1.810320e+02	304_dicter_abraham.jpg	101_barak_ehud.jpg	43	50	1	i	2	0	1383.07	0.35	0.27
BMI_bff_138	0	2	02	1	39	1.870219e+02	211_molla_shlomo.jpg	107_horowitz_nitzan.jpg	44	48	0	x	2	999	999000.00	0.35	0.28
BMI_bff_138	0	2	02	1	40	1.980176e+02	201_baron_roni.jpg	310_kirshenbaum_faina.jpg	53	46	0	i	2	1	981.39	0.22	0.29
BMI_bff_138	0	2	02	1	41	2.030233e+02	203_cohen_meir.jpg	308_hotovely_tzipi.jpg	14	18	1	i	1	0	903.71	0.67	0.64
BMI_bff_138	0	2	02	1	42	2.090300e+02	304_dicter_abraham.jpg	303_deri_arye.jpg	43	45	1	u	2	1	697.07	0.35	0.31
