subjectID	scanner	order	block	run	trial	onsettime	ImageLeft	ImageRight	bidIndexLeft	bidIndexRight	IsleftGo	Response	PairType	Outcome	RT	bidLeft	bidRight
BMI_bff_139	0	1	01	2	1	2.139276e+00	208_livnee_zipi.jpg	202_cahlon_moshe.jpg	18	11	1	i	1	0	747.77	0.66	0.78
BMI_bff_139	0	1	01	2	2	5.009137e+00	311_liberman_avigdor.jpg	205_german_yael.jpg	48	52	0	u	2	0	1045.91	0.23	0.21
BMI_bff_139	0	1	01	2	3	1.201707e+01	208_livnee_zipi.jpg	110_nachman_shai.jpg	18	17	1	u	1	1	1005.98	0.66	0.67
BMI_bff_139	0	1	01	2	4	1.602149e+01	219_stern_eliezer.jpg	208_livnee_zipi.jpg	9	18	0	i	1	1	913.56	0.78	0.66
BMI_bff_139	0	1	01	2	5	2.101048e+01	209_mitzna_amram.jpg	120_zuabi_hanin.jpg	51	50	0	u	2	0	972.57	0.22	0.22
BMI_bff_139	0	1	01	2	6	2.501499e+01	209_mitzna_amram.jpg	310_kirshenbaum_faina.jpg	51	44	0	i	2	1	1384.06	0.22	0.32
BMI_bff_139	0	1	01	2	7	2.901951e+01	215_rozbozov_yoel.jpg	219_stern_eliezer.jpg	15	9	1	i	1	0	1043.54	0.70	0.78
BMI_bff_139	0	1	01	2	8	3.202285e+01	115_shimon_peres.jpg	307_hazan_oren.jpg	6	55	1	u	4	1	944.19	0.84	0.16
BMI_bff_139	0	1	01	2	9	3.500947e+01	310_kirshenbaum_faina.jpg	211_molla_shlomo.jpg	44	43	1	i	2	0	941.58	0.32	0.35
BMI_bff_139	0	1	01	2	10	4.001515e+01	205_german_yael.jpg	209_mitzna_amram.jpg	52	51	1	i	2	0	1191.90	0.21	0.22
BMI_bff_139	0	1	01	2	11	4.401959e+01	119_zandberg_tamar.jpg	211_molla_shlomo.jpg	45	43	1	u	2	1	667.45	0.31	0.35
BMI_bff_139	0	1	01	2	12	4.900867e+01	207_lapid_yair.jpg	304_dicter_abraham.jpg	13	16	1	u	1	1	1014.40	0.71	0.69
BMI_bff_139	0	1	01	2	13	5.301303e+01	311_liberman_avigdor.jpg	303_deri_arye.jpg	48	53	0	u	2	0	1098.03	0.23	0.19
BMI_bff_139	0	1	01	2	14	5.601640e+01	215_rozbozov_yoel.jpg	320_yaalon_moshe.jpg	15	14	1	i	1	0	1054.65	0.70	0.71
BMI_bff_139	0	1	01	2	15	6.002089e+01	115_shimon_peres.jpg	317_shaked_ayelet.jpg	6	56	1	u	4	1	970.16	0.84	0.15
BMI_bff_139	0	1	01	2	16	6.601096e+01	101_barak_ehud.jpg	116_shmuli_itzik.jpg	8	7	0	i	1	1	972.09	0.78	0.79
BMI_bff_139	0	1	01	2	17	7.301891e+01	309_katz_yisrael.jpg	114_shafir_stav.jpg	21	19	0	i	5	1	676.14	0.62	0.65
BMI_bff_139	0	1	01	2	18	7.602219e+01	209_mitzna_amram.jpg	111_odeh_aiman.jpg	51	47	0	u	2	0	1128.87	0.22	0.24
BMI_bff_139	0	1	01	2	19	8.101114e+01	320_yaalon_moshe.jpg	208_livnee_zipi.jpg	14	18	0	u	1	0	1075.92	0.71	0.66
BMI_bff_139	0	1	01	2	20	8.601676e+01	116_shmuli_itzik.jpg	110_nachman_shai.jpg	7	17	1	u	1	1	1094.30	0.79	0.67
BMI_bff_139	0	1	01	2	21	9.200673e+01	202_cahlon_moshe.jpg	116_shmuli_itzik.jpg	11	7	0	i	1	1	696.31	0.78	0.79
BMI_bff_139	0	1	01	2	22	9.601131e+01	219_stern_eliezer.jpg	108_khenin_dov.jpg	9	12	0	i	1	1	1323.75	0.78	0.72
BMI_bff_139	0	1	01	2	23	1.010170e+02	314_netanyahu.jpg	119_zandberg_tamar.jpg	46	45	0	i	2	1	1230.06	0.28	0.31
BMI_bff_139	0	1	01	2	24	1.080078e+02	304_dicter_abraham.jpg	116_shmuli_itzik.jpg	16	7	0	i	1	1	847.20	0.69	0.79
BMI_bff_139	0	1	01	2	25	1.130138e+02	110_nachman_shai.jpg	207_lapid_yair.jpg	17	13	0	i	1	1	649.27	0.67	0.71
BMI_bff_139	0	1	01	2	26	1.180194e+02	119_zandberg_tamar.jpg	308_hotovely_tzipi.jpg	45	49	1	u	2	1	1299.64	0.31	0.23
BMI_bff_139	0	1	01	2	27	1.210228e+02	316_saar_gidon.jpg	309_katz_yisrael.jpg	22	21	1	u	5	1	1128.22	0.62	0.62
BMI_bff_139	0	1	01	2	28	1.240095e+02	202_cahlon_moshe.jpg	106_herzog_yitzhak.jpg	11	10	0	i	1	1	909.59	0.78	0.78
BMI_bff_139	0	1	01	2	29	1.300162e+02	205_german_yael.jpg	308_hotovely_tzipi.jpg	52	49	1	x	2	999	999000.00	0.21	0.23
BMI_bff_139	0	1	01	2	30	1.340207e+02	211_molla_shlomo.jpg	303_deri_arye.jpg	43	53	0	u	2	0	1186.39	0.35	0.19
BMI_bff_139	0	1	01	2	31	1.430141e+02	101_barak_ehud.jpg	215_rozbozov_yoel.jpg	8	15	0	u	1	0	936.94	0.78	0.70
BMI_bff_139	0	1	01	2	32	1.480198e+02	310_kirshenbaum_faina.jpg	311_liberman_avigdor.jpg	44	48	1	i	2	0	971.33	0.32	0.23
BMI_bff_139	0	1	01	2	33	1.570131e+02	314_netanyahu.jpg	303_deri_arye.jpg	46	53	0	i	2	1	1057.94	0.28	0.19
BMI_bff_139	0	1	01	2	34	1.600166e+02	120_zuabi_hanin.jpg	308_hotovely_tzipi.jpg	50	49	1	i	2	0	1038.47	0.22	0.23
BMI_bff_139	0	1	01	2	35	1.640210e+02	207_lapid_yair.jpg	320_yaalon_moshe.jpg	13	14	1	u	1	1	1034.03	0.71	0.71
BMI_bff_139	0	1	01	2	36	1.700110e+02	106_herzog_yitzhak.jpg	110_nachman_shai.jpg	10	17	1	u	1	1	844.01	0.78	0.67
BMI_bff_139	0	1	01	2	37	1.740156e+02	210_mofaz_shaul.jpg	203_cohen_meir.jpg	40	42	0	u	6	0	1071.47	0.38	0.36
BMI_bff_139	0	1	01	2	38	1.810067e+02	205_german_yael.jpg	211_molla_shlomo.jpg	52	43	1	i	2	0	1072.38	0.21	0.35
BMI_bff_139	0	1	01	2	39	1.870135e+02	119_zandberg_tamar.jpg	311_liberman_avigdor.jpg	45	48	1	u	2	1	1041.51	0.31	0.23
BMI_bff_139	0	1	01	2	40	1.980092e+02	211_molla_shlomo.jpg	111_odeh_aiman.jpg	43	47	0	u	2	0	917.85	0.35	0.24
BMI_bff_139	0	1	01	2	41	2.030148e+02	219_stern_eliezer.jpg	106_herzog_yitzhak.jpg	9	10	0	i	1	1	1096.24	0.78	0.78
BMI_bff_139	0	1	01	2	42	2.090216e+02	203_cohen_meir.jpg	112_peretz_amir.jpg	42	41	1	u	6	1	1041.43	0.36	0.38
