subjectID	scanner	order	block	run	trial	onsettime	ImageLeft	ImageRight	bidIndexLeft	bidIndexRight	IsleftGo	Response	PairType	Outcome	RT	bidLeft	bidRight
BMI_bff_108	0	2	02	1	1	2.100214e+00	304_dicter_abraham.jpg	214_piron_shai.jpg	53	48	0	x	2	999	999000.00	0.33	0.36
BMI_bff_108	0	2	02	1	2	7.022444e+00	214_piron_shai.jpg	319_steinitz_yuval.jpg	48	47	1	i	2	0	584.74	0.36	0.37
BMI_bff_108	0	2	02	1	3	1.501476e+01	319_steinitz_yuval.jpg	217_shelach_ofer.jpg	47	49	0	i	2	1	456.43	0.37	0.36
BMI_bff_108	0	2	02	1	4	1.801811e+01	216_sharom_ariel.jpg	219_stern_eliezer.jpg	14	18	1	i	1	0	509.09	0.67	0.62
BMI_bff_108	0	2	02	1	5	2.502593e+01	301_benet_naftali.jpg	103_cabel_eitan.jpg	45	46	0	i	2	1	653.26	0.37	0.37
BMI_bff_108	0	2	02	1	6	2.802933e+01	115_shimon_peres.jpg	101_barak_ehud.jpg	12	8	0	u	1	0	793.87	0.69	0.71
BMI_bff_108	0	2	02	1	7	3.902490e+01	118_yacimovich_shelly.jpg	218_shitrit_meir.jpg	17	10	1	u	1	1	670.29	0.63	0.69
BMI_bff_108	0	2	02	1	8	4.302949e+01	301_benet_naftali.jpg	205_german_yael.jpg	45	51	0	i	2	1	777.71	0.37	0.35
BMI_bff_108	0	2	02	1	9	4.701728e+01	308_hotovely_tzipi.jpg	213_perry_yaakov.jpg	5	55	1	i	4	0	845.91	0.74	0.29
BMI_bff_108	0	2	02	1	10	5.002059e+01	315_regev_miri.jpg	216_sharom_ariel.jpg	7	14	0	i	1	1	690.61	0.73	0.67
BMI_bff_108	0	2	02	1	11	5.302392e+01	214_piron_shai.jpg	316_saar_gidon.jpg	48	44	1	i	2	0	863.28	0.36	0.37
BMI_bff_108	0	2	02	1	12	5.802962e+01	116_shmuli_itzik.jpg	219_stern_eliezer.jpg	16	18	1	u	1	1	857.57	0.65	0.62
BMI_bff_108	0	2	02	1	13	6.201736e+01	116_shmuli_itzik.jpg	115_shimon_peres.jpg	16	12	1	i	1	0	1333.83	0.65	0.69
BMI_bff_108	0	2	02	1	14	7.102748e+01	216_sharom_ariel.jpg	302_danon_danny.jpg	14	13	1	u	1	1	499.72	0.67	0.68
BMI_bff_108	0	2	02	1	15	7.401394e+01	205_german_yael.jpg	319_steinitz_yuval.jpg	51	47	1	u	2	1	505.25	0.35	0.37
BMI_bff_108	0	2	02	1	16	7.901971e+01	113_rosenthal_mickey.jpg	107_horowitz_nitzan.jpg	15	11	0	u	1	0	579.48	0.66	0.69
BMI_bff_108	0	2	02	1	17	8.502647e+01	218_shitrit_meir.jpg	101_barak_ehud.jpg	10	8	0	i	1	1	556.72	0.69	0.71
BMI_bff_108	0	2	02	1	18	8.802988e+01	116_shmuli_itzik.jpg	302_danon_danny.jpg	16	13	1	u	1	1	785.34	0.65	0.68
BMI_bff_108	0	2	02	1	19	9.301883e+01	313_lizman_yaakov.jpg	215_rozbozov_yoel.jpg	42	41	0	i	6	1	572.37	0.38	0.38
BMI_bff_108	0	2	02	1	20	9.702323e+01	118_yacimovich_shelly.jpg	115_shimon_peres.jpg	17	12	1	u	1	1	567.96	0.63	0.69
BMI_bff_108	0	2	02	1	21	1.020289e+02	307_hazan_oren.jpg	215_rozbozov_yoel.jpg	39	41	0	x	6	999	999000.00	0.42	0.38
BMI_bff_108	0	2	02	1	22	1.070178e+02	320_yaalon_moshe.jpg	218_shitrit_meir.jpg	9	10	1	i	1	0	477.39	0.69	0.69
BMI_bff_108	0	2	02	1	23	1.100211e+02	116_shmuli_itzik.jpg	113_rosenthal_mickey.jpg	16	15	1	i	1	0	450.12	0.65	0.66
BMI_bff_108	0	2	02	1	24	1.130245e+02	316_saar_gidon.jpg	108_khenin_dov.jpg	44	43	0	i	2	1	590.74	0.37	0.38
BMI_bff_108	0	2	02	1	25	1.250213e+02	113_rosenthal_mickey.jpg	320_yaalon_moshe.jpg	15	9	0	i	1	1	361.85	0.66	0.69
BMI_bff_108	0	2	02	1	26	1.290258e+02	108_khenin_dov.jpg	301_benet_naftali.jpg	43	45	1	i	2	0	341.40	0.38	0.37
BMI_bff_108	0	2	02	1	27	1.320291e+02	217_shelach_ofer.jpg	211_molla_shlomo.jpg	49	50	1	i	2	0	386.05	0.36	0.35
BMI_bff_108	0	2	02	1	28	1.390203e+02	115_shimon_peres.jpg	320_yaalon_moshe.jpg	12	9	0	i	1	1	426.87	0.69	0.69
BMI_bff_108	0	2	02	1	29	1.420237e+02	319_steinitz_yuval.jpg	212_olmert_ehud.jpg	47	54	0	i	2	1	567.48	0.37	0.31
BMI_bff_108	0	2	02	1	30	1.490145e+02	105_gilon_ilan.jpg	205_german_yael.jpg	52	51	0	i	2	1	864.67	0.33	0.35
BMI_bff_108	0	2	02	1	31	1.540205e+02	214_piron_shai.jpg	211_molla_shlomo.jpg	48	50	1	i	2	0	450.71	0.36	0.35
BMI_bff_108	0	2	02	1	32	1.580250e+02	305_erdan_gilad.jpg	208_livnee_zipi.jpg	21	19	1	i	5	0	438.26	0.56	0.61
BMI_bff_108	0	2	02	1	33	1.630136e+02	217_shelach_ofer.jpg	301_benet_naftali.jpg	49	45	1	i	2	0	393.58	0.36	0.37
BMI_bff_108	0	2	02	1	34	1.690205e+02	302_danon_danny.jpg	320_yaalon_moshe.jpg	13	9	0	i	1	1	626.64	0.68	0.69
BMI_bff_108	0	2	02	1	35	1.730251e+02	315_regev_miri.jpg	101_barak_ehud.jpg	7	8	0	i	1	1	430.12	0.73	0.71
BMI_bff_108	0	2	02	1	36	1.760284e+02	105_gilon_ilan.jpg	212_olmert_ehud.jpg	52	54	0	i	2	1	538.78	0.33	0.31
BMI_bff_108	0	2	02	1	37	1.790149e+02	214_piron_shai.jpg	105_gilon_ilan.jpg	48	52	1	i	2	0	368.28	0.36	0.33
BMI_bff_108	0	2	02	1	38	1.820185e+02	317_shaked_ayelet.jpg	119_zandberg_tamar.jpg	20	22	1	i	5	0	372.69	0.56	0.55
BMI_bff_108	0	2	02	1	39	1.860230e+02	109_michaeli_meirav.jpg	213_perry_yaakov.jpg	6	55	1	i	4	0	736.24	0.73	0.29
BMI_bff_108	0	2	02	1	40	1.900275e+02	211_molla_shlomo.jpg	205_german_yael.jpg	50	51	0	i	2	1	443.71	0.35	0.35
BMI_bff_108	0	2	02	1	41	1.960175e+02	219_stern_eliezer.jpg	118_yacimovich_shelly.jpg	18	17	0	i	1	1	333.71	0.62	0.63
BMI_bff_108	0	2	02	1	42	2.050277e+02	316_saar_gidon.jpg	205_german_yael.jpg	44	51	0	i	2	1	491.50	0.37	0.35
