subjectID	scanner	order	block	run	trial	onsettime	ImageLeft	ImageRight	bidIndexLeft	bidIndexRight	IsleftGo	Response	PairType	Outcome	RT	bidLeft	bidRight
BMI_bff_127	0	1	02	2	1	2.020188e+00	201_baron_roni.jpg	115_shimon_peres.jpg	49	44	0	u	2	0	890.92	0.30	0.38
BMI_bff_127	0	1	02	2	2	8.010261e+00	111_odeh_aiman.jpg	115_shimon_peres.jpg	54	44	0	i	2	1	908.85	0.20	0.38
BMI_bff_127	0	1	02	2	3	1.101354e+01	312_livnat_limor.jpg	310_kirshenbaum_faina.jpg	22	20	1	u	5	1	1113.58	0.57	0.59
BMI_bff_127	0	1	02	2	4	1.401693e+01	106_herzog_yitzhak.jpg	115_shimon_peres.jpg	46	44	0	u	2	0	998.19	0.33	0.38
BMI_bff_127	0	1	02	2	5	1.702027e+01	105_gilon_ilan.jpg	201_baron_roni.jpg	45	49	1	u	2	1	1026.84	0.36	0.30
BMI_bff_127	0	1	02	2	6	2.100823e+01	309_katz_yisrael.jpg	207_lapid_yair.jpg	15	8	1	u	1	1	1022.88	0.68	0.79
BMI_bff_127	0	1	02	2	7	2.901706e+01	206_hasson_israel.JPG	113_rosenthal_mickey.jpg	47	48	1	u	2	1	870.05	0.32	0.31
BMI_bff_127	0	1	02	2	8	3.400599e+01	210_mofaz_shaul.jpg	115_shimon_peres.jpg	43	44	0	u	2	0	1097.13	0.39	0.38
BMI_bff_127	0	1	02	2	9	3.901163e+01	203_cohen_meir.jpg	105_gilon_ilan.jpg	51	45	0	i	2	1	1075.48	0.25	0.36
BMI_bff_127	0	1	02	2	10	4.201506e+01	204_galant_yoav.jpg	113_rosenthal_mickey.jpg	52	48	1	u	2	1	960.04	0.23	0.31
BMI_bff_127	0	1	02	2	11	4.501841e+01	219_stern_eliezer.jpg	311_liberman_avigdor.jpg	12	14	1	i	1	0	1188.70	0.73	0.69
BMI_bff_127	0	1	02	2	12	5.100846e+01	313_lizman_yaakov.jpg	201_baron_roni.jpg	50	49	1	i	2	0	798.65	0.27	0.30
BMI_bff_127	0	1	02	2	13	5.501292e+01	108_khenin_dov.jpg	318_shalom_silvan.jpg	55	6	0	i	4	1	746.19	0.14	0.80
BMI_bff_127	0	1	02	2	14	5.801627e+01	201_baron_roni.jpg	206_hasson_israel.JPG	49	47	0	i	2	1	974.84	0.30	0.32
BMI_bff_127	0	1	02	2	15	6.300503e+01	217_shelach_ofer.jpg	309_katz_yisrael.jpg	17	15	0	i	1	1	930.09	0.67	0.68
BMI_bff_127	0	1	02	2	16	7.001320e+01	220_tamnu_shata_penina.jpg	107_horowitz_nitzan.jpg	19	21	1	u	5	1	865.91	0.65	0.57
BMI_bff_127	0	1	02	2	17	7.301658e+01	207_lapid_yair.jpg	302_danon_danny.jpg	8	7	0	u	1	0	950.53	0.79	0.80
BMI_bff_127	0	1	02	2	18	8.200994e+01	303_deri_arye.jpg	113_rosenthal_mickey.jpg	53	48	1	i	2	0	893.21	0.22	0.31
BMI_bff_127	0	1	02	2	19	8.501326e+01	206_hasson_israel.JPG	203_cohen_meir.jpg	47	51	1	i	2	0	1073.87	0.32	0.25
BMI_bff_127	0	1	02	2	20	9.102008e+01	303_deri_arye.jpg	106_herzog_yitzhak.jpg	53	46	1	i	2	0	947.02	0.22	0.33
BMI_bff_127	0	1	02	2	21	9.600896e+01	106_herzog_yitzhak.jpg	105_gilon_ilan.jpg	46	45	0	i	2	1	894.16	0.33	0.36
BMI_bff_127	0	1	02	2	22	9.901234e+01	109_michaeli_meirav.jpg	114_shafir_stav.jpg	10	11	1	i	1	0	730.78	0.77	0.76
BMI_bff_127	0	1	02	2	23	1.060202e+02	316_saar_gidon.jpg	109_michaeli_meirav.jpg	9	10	0	u	1	0	1058.95	0.78	0.77
BMI_bff_127	0	1	02	2	24	1.110091e+02	207_lapid_yair.jpg	202_cahlon_moshe.jpg	8	13	0	i	1	1	1038.00	0.79	0.71
BMI_bff_127	0	1	02	2	25	1.170159e+02	114_shafir_stav.jpg	317_shaked_ayelet.jpg	11	18	0	u	1	0	575.21	0.76	0.67
BMI_bff_127	0	1	02	2	26	1.210204e+02	111_odeh_aiman.jpg	313_lizman_yaakov.jpg	54	50	0	u	2	0	882.71	0.20	0.27
BMI_bff_127	0	1	02	2	27	1.250082e+02	309_katz_yisrael.jpg	316_saar_gidon.jpg	15	9	1	u	1	1	1190.92	0.68	0.78
BMI_bff_127	0	1	02	2	28	1.280116e+02	109_michaeli_meirav.jpg	214_piron_shai.jpg	10	16	1	u	1	1	1107.54	0.77	0.68
BMI_bff_127	0	1	02	2	29	1.310149e+02	119_zandberg_tamar.jpg	318_shalom_silvan.jpg	56	6	0	i	4	1	736.20	0.14	0.80
BMI_bff_127	0	1	02	2	30	1.360205e+02	208_livnee_zipi.jpg	304_dicter_abraham.jpg	41	39	0	i	6	1	962.57	0.41	0.44
BMI_bff_127	0	1	02	2	31	1.400084e+02	214_piron_shai.jpg	309_katz_yisrael.jpg	16	15	0	i	1	1	838.74	0.68	0.68
BMI_bff_127	0	1	02	2	32	1.430117e+02	302_danon_danny.jpg	214_piron_shai.jpg	7	16	1	u	1	1	987.39	0.80	0.68
BMI_bff_127	0	1	02	2	33	1.480174e+02	302_danon_danny.jpg	217_shelach_ofer.jpg	7	17	1	u	1	1	781.69	0.80	0.67
BMI_bff_127	0	1	02	2	34	1.510207e+02	109_michaeli_meirav.jpg	217_shelach_ofer.jpg	10	17	1	u	1	1	794.44	0.77	0.67
BMI_bff_127	0	1	02	2	35	1.550085e+02	214_piron_shai.jpg	317_shaked_ayelet.jpg	16	18	0	i	1	1	646.60	0.68	0.67
BMI_bff_127	0	1	02	2	36	1.680062e+02	204_galant_yoav.jpg	210_mofaz_shaul.jpg	52	43	1	i	2	0	872.88	0.23	0.39
BMI_bff_127	0	1	02	2	37	1.740132e+02	317_shaked_ayelet.jpg	217_shelach_ofer.jpg	18	17	1	u	1	1	577.90	0.67	0.67
BMI_bff_127	0	1	02	2	38	1.790188e+02	217_shelach_ofer.jpg	219_stern_eliezer.jpg	17	12	0	u	1	0	812.33	0.67	0.73
BMI_bff_127	0	1	02	2	39	1.850088e+02	203_cohen_meir.jpg	115_shimon_peres.jpg	51	44	0	u	2	0	726.27	0.25	0.38
BMI_bff_127	0	1	02	2	40	1.880123e+02	219_stern_eliezer.jpg	114_shafir_stav.jpg	12	11	1	i	1	0	610.82	0.73	0.76
BMI_bff_127	0	1	02	2	41	1.920168e+02	204_galant_yoav.jpg	106_herzog_yitzhak.jpg	52	46	1	i	2	0	1014.34	0.23	0.33
BMI_bff_127	0	1	02	2	42	1.970056e+02	118_yacimovich_shelly.jpg	102_beneliezer_binyamin.jpg	40	42	0	u	6	0	985.54	0.43	0.39
