subjectID	scanner	order	block	run	trial	onsettime	ImageLeft	ImageRight	bidIndexLeft	bidIndexRight	IsleftGo	Response	PairType	Outcome	RT	bidLeft	bidRight
BMI_bff_136	0	2	01	1	1	2.144060e+00	304_dicter_abraham.jpg	120_zuabi_hanin.jpg	49	53	1	x	2	999	999000.00	0.25	0.19
BMI_bff_136	0	2	01	1	2	8.017324e+00	213_perry_yaakov.jpg	307_hazan_oren.jpg	50	51	0	u	2	0	748.90	0.25	0.22
BMI_bff_136	0	2	01	1	3	1.102070e+01	119_zandberg_tamar.jpg	211_molla_shlomo.jpg	10	11	0	i	1	1	769.52	0.75	0.74
BMI_bff_136	0	2	01	1	4	1.402413e+01	304_dicter_abraham.jpg	209_mitzna_amram.jpg	49	47	1	u	2	1	1046.09	0.25	0.26
BMI_bff_136	0	2	01	1	5	1.702750e+01	117_tibi_ahmed.jpg	311_liberman_avigdor.jpg	48	52	1	u	2	1	842.74	0.25	0.21
BMI_bff_136	0	2	01	1	6	2.101528e+01	102_beneliezer_binyamin.jpg	109_michaeli_meirav.jpg	16	12	1	i	1	0	702.94	0.69	0.74
BMI_bff_136	0	2	01	1	7	2.902429e+01	207_lapid_yair.jpg	303_deri_arye.jpg	6	55	1	u	4	1	981.93	0.83	0.17
BMI_bff_136	0	2	01	1	8	3.401294e+01	116_shmuli_itzik.jpg	305_erdan_gilad.jpg	17	18	1	i	1	0	865.28	0.68	0.67
BMI_bff_136	0	2	01	1	9	3.901886e+01	307_hazan_oren.jpg	311_liberman_avigdor.jpg	51	52	1	u	2	1	867.34	0.22	0.21
BMI_bff_136	0	2	01	1	10	4.202230e+01	120_zuabi_hanin.jpg	307_hazan_oren.jpg	53	51	0	i	2	1	1231.92	0.19	0.22
BMI_bff_136	0	2	01	1	11	4.502559e+01	306_gafni_moshe.jpg	117_tibi_ahmed.jpg	44	48	0	x	2	999	999000.00	0.30	0.25
BMI_bff_136	0	2	01	1	12	5.101573e+01	319_steinitz_yuval.jpg	112_peretz_amir.jpg	39	41	0	i	6	1	1174.49	0.35	0.33
BMI_bff_136	0	2	01	1	13	5.502016e+01	302_danon_danny.jpg	113_rosenthal_mickey.jpg	22	21	0	u	5	0	1194.06	0.63	0.64
BMI_bff_136	0	2	01	1	14	5.802353e+01	313_lizman_yaakov.jpg	117_tibi_ahmed.jpg	45	48	0	x	2	999	999000.00	0.29	0.25
BMI_bff_136	0	2	01	1	15	6.302923e+01	119_zandberg_tamar.jpg	116_shmuli_itzik.jpg	10	17	0	u	1	0	792.99	0.75	0.68
BMI_bff_136	0	2	01	1	16	7.002037e+01	314_netanyahu.jpg	311_liberman_avigdor.jpg	54	52	1	i	2	0	1273.85	0.17	0.21
BMI_bff_136	0	2	01	1	17	7.302372e+01	211_molla_shlomo.jpg	106_herzog_yitzhak.jpg	11	15	1	u	1	1	1038.50	0.74	0.70
BMI_bff_136	0	2	01	1	18	8.201718e+01	205_german_yael.jpg	119_zandberg_tamar.jpg	8	10	1	i	1	0	1429.05	0.81	0.75
BMI_bff_136	0	2	01	1	19	8.502053e+01	117_tibi_ahmed.jpg	213_perry_yaakov.jpg	48	50	1	i	2	0	1321.69	0.25	0.25
BMI_bff_136	0	2	01	1	20	9.102728e+01	311_liberman_avigdor.jpg	304_dicter_abraham.jpg	52	49	0	i	2	1	962.94	0.21	0.25
BMI_bff_136	0	2	01	1	21	9.601626e+01	305_erdan_gilad.jpg	115_shimon_peres.jpg	18	14	0	i	1	1	1221.95	0.67	0.71
BMI_bff_136	0	2	01	1	22	9.901959e+01	214_piron_shai.jpg	107_horowitz_nitzan.jpg	56	5	0	i	4	1	834.63	0.17	0.84
BMI_bff_136	0	2	01	1	23	1.060276e+02	305_erdan_gilad.jpg	104_galon_zahava.jpg	18	9	0	i	1	1	786.66	0.67	0.77
BMI_bff_136	0	2	01	1	24	1.110165e+02	304_dicter_abraham.jpg	306_gafni_moshe.jpg	49	44	1	u	2	1	1101.77	0.25	0.30
BMI_bff_136	0	2	01	1	25	1.170232e+02	306_gafni_moshe.jpg	307_hazan_oren.jpg	44	51	0	u	2	0	1022.98	0.30	0.22
BMI_bff_136	0	2	01	1	26	1.210277e+02	119_zandberg_tamar.jpg	104_galon_zahava.jpg	10	9	0	i	1	1	698.48	0.75	0.77
BMI_bff_136	0	2	01	1	27	1.250155e+02	102_beneliezer_binyamin.jpg	108_khenin_dov.jpg	16	7	1	i	1	0	766.71	0.69	0.81
BMI_bff_136	0	2	01	1	28	1.280189e+02	115_shimon_peres.jpg	109_michaeli_meirav.jpg	14	12	1	i	1	0	739.30	0.71	0.74
BMI_bff_136	0	2	01	1	29	1.310223e+02	205_german_yael.jpg	108_khenin_dov.jpg	8	7	1	i	1	0	847.95	0.81	0.81
BMI_bff_136	0	2	01	1	30	1.360278e+02	311_liberman_avigdor.jpg	308_hotovely_tzipi.jpg	52	43	0	i	2	1	1226.39	0.21	0.31
BMI_bff_136	0	2	01	1	31	1.400158e+02	217_shelach_ofer.jpg	104_galon_zahava.jpg	13	9	0	i	1	1	990.45	0.73	0.77
BMI_bff_136	0	2	01	1	32	1.430190e+02	104_galon_zahava.jpg	109_michaeli_meirav.jpg	9	12	1	u	1	1	1043.18	0.77	0.74
BMI_bff_136	0	2	01	1	33	1.480247e+02	106_herzog_yitzhak.jpg	115_shimon_peres.jpg	15	14	0	x	1	999	999000.00	0.70	0.71
BMI_bff_136	0	2	01	1	34	1.510281e+02	316_saar_gidon.jpg	113_rosenthal_mickey.jpg	19	21	0	i	5	1	1066.17	0.67	0.64
BMI_bff_136	0	2	01	1	35	1.550159e+02	106_herzog_yitzhak.jpg	102_beneliezer_binyamin.jpg	15	16	0	u	1	0	1110.29	0.70	0.69
BMI_bff_136	0	2	01	1	36	1.680136e+02	304_dicter_abraham.jpg	313_lizman_yaakov.jpg	49	45	1	u	2	1	1024.62	0.25	0.29
BMI_bff_136	0	2	01	1	37	1.740205e+02	201_baron_roni.jpg	112_peretz_amir.jpg	42	41	0	u	6	0	833.71	0.33	0.33
BMI_bff_136	0	2	01	1	38	1.790261e+02	103_cabel_eitan.jpg	120_zuabi_hanin.jpg	46	53	1	u	2	1	732.08	0.27	0.19
BMI_bff_136	0	2	01	1	39	1.850163e+02	314_netanyahu.jpg	209_mitzna_amram.jpg	54	47	1	i	2	0	1061.89	0.17	0.26
BMI_bff_136	0	2	01	1	40	1.880197e+02	102_beneliezer_binyamin.jpg	305_erdan_gilad.jpg	16	18	1	i	1	0	802.57	0.69	0.67
BMI_bff_136	0	2	01	1	41	1.920241e+02	217_shelach_ofer.jpg	102_beneliezer_binyamin.jpg	13	16	0	u	1	0	942.08	0.73	0.69
BMI_bff_136	0	2	01	1	42	1.970297e+02	308_hotovely_tzipi.jpg	209_mitzna_amram.jpg	43	47	1	u	2	1	1160.48	0.31	0.26
