subjectID	scanner	order	block	run	trial	onsettime	ImageLeft	ImageRight	bidIndexLeft	bidIndexRight	IsleftGo	Response	PairType	Outcome	RT	bidLeft	bidRight
BMI_bff_125	0	1	02	1	1	2.152909e+00	120_zuabi_hanin.jpg	102_beneliezer_binyamin.jpg	54	47	0	i	2	1	941.60	0.23	0.26
BMI_bff_125	0	1	02	1	2	8.009520e+00	205_german_yael.jpg	310_kirshenbaum_faina.jpg	7	9	1	u	1	1	908.99	0.78	0.76
BMI_bff_125	0	1	02	1	3	1.101290e+01	314_netanyahu.jpg	315_regev_miri.jpg	10	14	1	u	1	1	969.62	0.76	0.72
BMI_bff_125	0	1	02	1	4	1.401619e+01	210_mofaz_shaul.jpg	316_saar_gidon.jpg	40	39	0	i	6	1	1454.32	0.38	0.38
BMI_bff_125	0	1	02	1	5	1.701954e+01	110_nachman_shai.jpg	215_rozbozov_yoel.jpg	55	6	0	i	4	1	962.99	0.21	0.78
BMI_bff_125	0	1	02	1	6	2.100709e+01	320_yaalon_moshe.jpg	116_shmuli_itzik.jpg	44	51	1	u	2	1	1119.42	0.34	0.24
BMI_bff_125	0	1	02	1	7	2.901642e+01	103_cabel_eitan.jpg	214_piron_shai.jpg	43	52	0	u	2	0	1182.10	0.34	0.24
BMI_bff_125	0	1	02	1	8	3.402197e+01	117_tibi_ahmed.jpg	212_olmert_ehud.jpg	56	5	0	i	4	1	976.54	0.19	0.81
BMI_bff_125	0	1	02	1	9	3.901091e+01	308_hotovely_tzipi.jpg	205_german_yael.jpg	8	7	0	i	1	1	1091.60	0.77	0.78
BMI_bff_125	0	1	02	1	10	4.201431e+01	303_deri_arye.jpg	204_galant_yoav.jpg	46	45	0	i	2	1	928.21	0.31	0.31
BMI_bff_125	0	1	02	1	11	4.501770e+01	319_steinitz_yuval.jpg	309_katz_yisrael.jpg	53	49	1	u	2	1	1340.82	0.23	0.26
BMI_bff_125	0	1	02	1	12	5.100744e+01	120_zuabi_hanin.jpg	320_yaalon_moshe.jpg	54	44	0	i	2	1	815.08	0.23	0.34
BMI_bff_125	0	1	02	1	13	5.501230e+01	310_kirshenbaum_faina.jpg	312_livnat_limor.jpg	9	18	0	u	1	0	1450.22	0.76	0.66
BMI_bff_125	0	1	02	1	14	5.801566e+01	220_tamnu_shata_penina.jpg	308_hotovely_tzipi.jpg	12	8	1	u	1	1	822.85	0.76	0.77
BMI_bff_125	0	1	02	1	15	6.302119e+01	102_beneliezer_binyamin.jpg	116_shmuli_itzik.jpg	47	51	1	i	2	0	841.33	0.26	0.24
BMI_bff_125	0	1	02	1	16	7.001237e+01	109_michaeli_meirav.jpg	219_stern_eliezer.jpg	20	19	0	u	5	0	1018.14	0.65	0.65
BMI_bff_125	0	1	02	1	17	7.301575e+01	319_steinitz_yuval.jpg	303_deri_arye.jpg	53	46	1	u	2	1	918.77	0.23	0.31
BMI_bff_125	0	1	02	1	18	8.200918e+01	216_sharom_ariel.jpg	104_galon_zahava.jpg	13	17	1	x	1	999	999000.00	0.73	0.67
BMI_bff_125	0	1	02	1	19	8.501258e+01	119_zandberg_tamar.jpg	208_livnee_zipi.jpg	11	15	0	u	1	0	1065.94	0.76	0.71
BMI_bff_125	0	1	02	1	20	9.101928e+01	303_deri_arye.jpg	320_yaalon_moshe.jpg	46	44	0	i	2	1	699.25	0.31	0.34
BMI_bff_125	0	1	02	1	21	9.600834e+01	304_dicter_abraham.jpg	208_livnee_zipi.jpg	16	15	0	i	1	1	1230.17	0.68	0.71
BMI_bff_125	0	1	02	1	22	9.901159e+01	319_steinitz_yuval.jpg	113_rosenthal_mickey.jpg	53	48	1	x	2	999	999000.00	0.23	0.26
BMI_bff_125	0	1	02	1	23	1.060195e+02	113_rosenthal_mickey.jpg	204_galant_yoav.jpg	48	45	0	i	2	1	883.01	0.26	0.31
BMI_bff_125	0	1	02	1	24	1.110085e+02	103_cabel_eitan.jpg	319_steinitz_yuval.jpg	43	53	0	u	2	0	1006.02	0.34	0.23
BMI_bff_125	0	1	02	1	25	1.170151e+02	119_zandberg_tamar.jpg	312_livnat_limor.jpg	11	18	0	u	1	0	1015.38	0.76	0.66
BMI_bff_125	0	1	02	1	26	1.210196e+02	216_sharom_ariel.jpg	119_zandberg_tamar.jpg	13	11	1	i	1	0	594.87	0.73	0.76
BMI_bff_125	0	1	02	1	27	1.250071e+02	308_hotovely_tzipi.jpg	208_livnee_zipi.jpg	8	15	0	u	1	0	935.38	0.77	0.71
BMI_bff_125	0	1	02	1	28	1.280108e+02	303_deri_arye.jpg	214_piron_shai.jpg	46	52	0	i	2	1	779.69	0.31	0.24
BMI_bff_125	0	1	02	1	29	1.310143e+02	214_piron_shai.jpg	116_shmuli_itzik.jpg	52	51	1	i	2	0	880.24	0.24	0.24
BMI_bff_125	0	1	02	1	30	1.360198e+02	220_tamnu_shata_penina.jpg	119_zandberg_tamar.jpg	12	11	1	u	1	1	890.72	0.76	0.76
BMI_bff_125	0	1	02	1	31	1.400079e+02	102_beneliezer_binyamin.jpg	303_deri_arye.jpg	47	46	1	u	2	1	1302.64	0.26	0.31
BMI_bff_125	0	1	02	1	32	1.430110e+02	111_odeh_aiman.jpg	201_baron_roni.jpg	42	41	1	i	6	0	1067.50	0.36	0.38
BMI_bff_125	0	1	02	1	33	1.480167e+02	214_piron_shai.jpg	120_zuabi_hanin.jpg	52	54	1	u	2	1	965.80	0.24	0.23
BMI_bff_125	0	1	02	1	34	1.510200e+02	216_sharom_ariel.jpg	315_regev_miri.jpg	13	14	1	i	1	0	954.56	0.73	0.72
BMI_bff_125	0	1	02	1	35	1.550076e+02	220_tamnu_shata_penina.jpg	304_dicter_abraham.jpg	12	16	1	u	1	1	766.95	0.76	0.68
BMI_bff_125	0	1	02	1	36	1.680225e+02	216_sharom_ariel.jpg	308_hotovely_tzipi.jpg	13	8	1	i	1	0	1344.02	0.73	0.77
BMI_bff_125	0	1	02	1	37	1.740125e+02	208_livnee_zipi.jpg	104_galon_zahava.jpg	15	17	1	i	1	0	1074.05	0.71	0.67
BMI_bff_125	0	1	02	1	38	1.790181e+02	102_beneliezer_binyamin.jpg	309_katz_yisrael.jpg	47	49	1	u	2	1	1252.43	0.26	0.26
BMI_bff_125	0	1	02	1	39	1.850079e+02	113_rosenthal_mickey.jpg	112_peretz_amir.jpg	48	50	0	u	2	0	894.62	0.26	0.26
BMI_bff_125	0	1	02	1	40	1.880115e+02	220_tamnu_shata_penina.jpg	104_galon_zahava.jpg	12	17	1	i	1	0	650.98	0.76	0.67
BMI_bff_125	0	1	02	1	41	1.920160e+02	310_kirshenbaum_faina.jpg	314_netanyahu.jpg	9	10	0	u	1	0	1254.48	0.76	0.76
BMI_bff_125	0	1	02	1	42	1.970216e+02	109_michaeli_meirav.jpg	115_shimon_peres.jpg	20	22	0	i	5	1	1144.88	0.65	0.64
