subjectID	scanner	order	block	run	trial	onsettime	ImageLeft	ImageRight	bidIndexLeft	bidIndexRight	IsleftGo	Response	PairType	Outcome	RT	bidLeft	bidRight
BMI_bff_124	0	2	02	2	1	2.150282e+00	208_livnee_zipi.jpg	308_hotovely_tzipi.jpg	13	9	0	i	1	1	808.42	0.71	0.77
BMI_bff_124	0	2	02	2	2	8.006768e+00	316_saar_gidon.jpg	216_sharom_ariel.jpg	8	12	1	i	1	0	703.92	0.77	0.73
BMI_bff_124	0	2	02	2	3	1.101025e+01	204_galant_yoav.jpg	308_hotovely_tzipi.jpg	15	9	0	i	1	1	620.44	0.69	0.77
BMI_bff_124	0	2	02	2	4	1.401359e+01	209_mitzna_amram.jpg	315_regev_miri.jpg	50	51	0	u	2	0	729.11	0.28	0.23
BMI_bff_124	0	2	02	2	5	1.701691e+01	220_tamnu_shata_penina.jpg	104_galon_zahava.jpg	17	18	1	i	1	0	693.79	0.68	0.66
BMI_bff_124	0	2	02	2	6	2.102143e+01	116_shmuli_itzik.jpg	202_cahlon_moshe.jpg	14	7	1	i	1	0	577.28	0.71	0.78
BMI_bff_124	0	2	02	2	7	2.901367e+01	314_netanyahu.jpg	219_stern_eliezer.jpg	52	54	0	i	2	1	777.03	0.23	0.20
BMI_bff_124	0	2	02	2	8	3.401936e+01	308_hotovely_tzipi.jpg	115_shimon_peres.jpg	9	10	1	i	1	0	659.34	0.77	0.74
BMI_bff_124	0	2	02	2	9	3.900826e+01	103_cabel_eitan.jpg	111_odeh_aiman.jpg	48	45	1	i	2	0	702.43	0.30	0.34
BMI_bff_124	0	2	02	2	10	4.201164e+01	305_erdan_gilad.jpg	113_rosenthal_mickey.jpg	53	46	0	i	2	1	699.05	0.21	0.33
BMI_bff_124	0	2	02	2	11	4.501496e+01	306_gafni_moshe.jpg	214_piron_shai.jpg	44	49	0	i	2	1	743.75	0.34	0.29
BMI_bff_124	0	2	02	2	12	5.100479e+01	108_khenin_dov.jpg	206_hasson_israel.JPG	20	19	1	i	5	0	1025.90	0.63	0.65
BMI_bff_124	0	2	02	2	13	5.500957e+01	115_shimon_peres.jpg	316_saar_gidon.jpg	10	8	0	u	1	0	861.11	0.74	0.77
BMI_bff_124	0	2	02	2	14	5.801291e+01	205_german_yael.jpg	119_zandberg_tamar.jpg	22	21	0	i	5	1	897.78	0.61	0.61
BMI_bff_124	0	2	02	2	15	6.301852e+01	317_shaked_ayelet.jpg	204_galant_yoav.jpg	11	15	1	i	1	0	948.17	0.74	0.69
BMI_bff_124	0	2	02	2	16	7.000980e+01	306_gafni_moshe.jpg	315_regev_miri.jpg	44	51	0	u	2	0	1204.89	0.34	0.23
BMI_bff_124	0	2	02	2	17	7.301306e+01	107_horowitz_nitzan.jpg	319_steinitz_yuval.jpg	42	40	0	u	6	0	1265.65	0.36	0.37
BMI_bff_124	0	2	02	2	18	8.200663e+01	214_piron_shai.jpg	314_netanyahu.jpg	49	52	1	u	2	1	1136.06	0.29	0.23
BMI_bff_124	0	2	02	2	19	8.500994e+01	204_galant_yoav.jpg	316_saar_gidon.jpg	15	8	0	u	1	0	1228.77	0.69	0.77
BMI_bff_124	0	2	02	2	20	9.101667e+01	316_saar_gidon.jpg	208_livnee_zipi.jpg	8	13	1	i	1	0	1078.03	0.77	0.71
BMI_bff_124	0	2	02	2	21	9.600530e+01	313_lizman_yaakov.jpg	111_odeh_aiman.jpg	43	45	1	i	2	0	753.40	0.36	0.34
BMI_bff_124	0	2	02	2	22	9.900896e+01	202_cahlon_moshe.jpg	106_herzog_yitzhak.jpg	7	16	0	u	1	0	1293.77	0.78	0.69
BMI_bff_124	0	2	02	2	23	1.060168e+02	116_shmuli_itzik.jpg	115_shimon_peres.jpg	14	10	1	i	1	0	693.92	0.71	0.74
BMI_bff_124	0	2	02	2	24	1.110054e+02	201_baron_roni.jpg	307_hazan_oren.jpg	39	41	0	u	6	0	1097.28	0.37	0.36
BMI_bff_124	0	2	02	2	25	1.170125e+02	306_gafni_moshe.jpg	103_cabel_eitan.jpg	44	48	0	i	2	1	970.21	0.34	0.30
BMI_bff_124	0	2	02	2	26	1.210170e+02	316_saar_gidon.jpg	104_galon_zahava.jpg	8	18	1	i	1	0	1077.75	0.77	0.66
BMI_bff_124	0	2	02	2	27	1.250215e+02	110_nachman_shai.jpg	309_katz_yisrael.jpg	6	55	1	x	4	999	999000.00	0.84	0.20
BMI_bff_124	0	2	02	2	28	1.280082e+02	214_piron_shai.jpg	209_mitzna_amram.jpg	49	50	1	u	2	1	774.54	0.29	0.28
BMI_bff_124	0	2	02	2	29	1.310115e+02	219_stern_eliezer.jpg	305_erdan_gilad.jpg	54	53	1	u	2	1	1035.19	0.20	0.21
BMI_bff_124	0	2	02	2	30	1.360172e+02	308_hotovely_tzipi.jpg	216_sharom_ariel.jpg	9	12	1	i	1	0	949.52	0.77	0.73
BMI_bff_124	0	2	02	2	31	1.400217e+02	208_livnee_zipi.jpg	220_tamnu_shata_penina.jpg	13	17	0	u	1	0	809.03	0.71	0.68
BMI_bff_124	0	2	02	2	32	1.430084e+02	314_netanyahu.jpg	315_regev_miri.jpg	52	51	0	u	2	0	726.29	0.23	0.23
BMI_bff_124	0	2	02	2	33	1.480140e+02	106_herzog_yitzhak.jpg	216_sharom_ariel.jpg	16	12	1	i	1	0	608.74	0.69	0.73
BMI_bff_124	0	2	02	2	34	1.510173e+02	317_shaked_ayelet.jpg	216_sharom_ariel.jpg	11	12	1	i	1	0	805.35	0.74	0.73
BMI_bff_124	0	2	02	2	35	1.550219e+02	113_rosenthal_mickey.jpg	306_gafni_moshe.jpg	46	44	1	i	2	0	880.85	0.33	0.34
BMI_bff_124	0	2	02	2	36	1.680198e+02	110_nachman_shai.jpg	302_danon_danny.jpg	6	56	1	u	4	1	1058.89	0.84	0.14
BMI_bff_124	0	2	02	2	37	1.740099e+02	208_livnee_zipi.jpg	317_shaked_ayelet.jpg	13	11	0	i	1	1	1012.76	0.71	0.74
BMI_bff_124	0	2	02	2	38	1.790154e+02	305_erdan_gilad.jpg	103_cabel_eitan.jpg	53	48	0	i	2	1	767.28	0.21	0.30
BMI_bff_124	0	2	02	2	39	1.850222e+02	113_rosenthal_mickey.jpg	111_odeh_aiman.jpg	46	45	1	i	2	0	792.52	0.33	0.34
BMI_bff_124	0	2	02	2	40	1.880089e+02	209_mitzna_amram.jpg	103_cabel_eitan.jpg	50	48	0	i	2	1	965.83	0.28	0.30
BMI_bff_124	0	2	02	2	41	1.920134e+02	306_gafni_moshe.jpg	313_lizman_yaakov.jpg	44	43	0	u	2	0	1041.32	0.34	0.36
BMI_bff_124	0	2	02	2	42	1.970190e+02	305_erdan_gilad.jpg	214_piron_shai.jpg	53	49	0	i	2	1	819.66	0.21	0.29
