subjectID	 scanner	 order	 block	 run	 trial	 onsettime	 ImageLeft	 ImageRight	 bidIndexLeft	 bidIndexRight	 IsleftGo	 Response	 PairType	 Outcome	 RT	 bidLeft	 bidRight	 
101	 0	 1	 02	 2	 1	 2.015893e+00	 9600.jpg	 9561.jpg	 12	 22	 1	 i	 1	 0	 1114.58	 0.70	 0.59	 
101	 0	 1	 02	 2	 2	 5.007099e+00	 9090.jpg	 9561.jpg	 15	 22	 1	 u	 1	 1	 1019.36	 0.69	 0.59	 
101	 0	 1	 02	 2	 3	 9.013180e+00	 6570.1.JPG	 6242.jpg	 13	 14	 1	 i	 1	 0	 1141.24	 0.70	 0.69	 
101	 0	 1	 02	 2	 4	 1.500895e+01	 9050.jpg	 9322.jpg	 46	 47	 0	 u	 2	 0	 857.43	 0.30	 0.29	 
101	 0	 1	 02	 2	 5	 2.101807e+01	 7359.jpg	 2750.jpg	 54	 45	 0	 i	 2	 1	 1152.27	 0.20	 0.31	 
101	 0	 1	 02	 2	 6	 2.601231e+01	 9373.jpg	 9120.jpg	 53	 43	 1	 i	 2	 0	 750.00	 0.20	 0.35	 
101	 0	 1	 02	 2	 7	 3.001839e+01	 9600.jpg	 9341.jpg	 12	 16	 1	 i	 1	 0	 727.89	 0.70	 0.69	 
101	 0	 1	 02	 2	 8	 3.501264e+01	 1271.jpg	 9254.jpg	 48	 50	 0	 i	 2	 1	 805.62	 0.28	 0.25	 
101	 0	 1	 02	 2	 9	 4.100841e+01	 9120.jpg	 1111.jpg	 43	 39	 0	 i	 2	 1	 857.81	 0.35	 0.44	 
101	 0	 1	 02	 2	 10	 4.401297e+01	 9341.jpg	 9090.jpg	 16	 15	 0	 u	 1	 0	 765.23	 0.69	 0.69	 
101	 0	 1	 02	 2	 11	 4.701753e+01	 1111.jpg	 9042.jpg	 39	 40	 1	 i	 2	 0	 688.64	 0.44	 0.43	 
101	 0	 1	 02	 2	 12	 5.101025e+01	 2750.jpg	 6555.jpg	 45	 41	 1	 u	 2	 1	 631.90	 0.31	 0.39	 
101	 0	 1	 02	 2	 13	 5.601785e+01	 9905.jpg	 2683.jpg	 11	 7	 0	 u	 1	 0	 1032.25	 0.72	 0.80	 
101	 0	 1	 02	 2	 14	 5.900906e+01	 9008.jpg	 9425.jpg	 35	 23	 0	 i	 4	 1	 809.02	 0.47	 0.58	 
101	 0	 1	 02	 2	 15	 6.201362e+01	 6370.jpg	 9600.jpg	 17	 12	 0	 i	 1	 1	 668.48	 0.69	 0.70	 
101	 0	 1	 02	 2	 16	 6.600635e+01	 9042.jpg	 disg3.JPG	 40	 44	 0	 u	 2	 0	 643.71	 0.43	 0.34	 
101	 0	 1	 02	 2	 17	 8.001427e+01	 9390.jpg	 9561.jpg	 20	 22	 1	 u	 1	 1	 699.69	 0.65	 0.59	 
101	 0	 1	 02	 2	 18	 8.801308e+01	 6838.jpg	 9330.jpg	 21	 19	 1	 u	 1	 1	 908.81	 0.64	 0.65	 
101	 0	 1	 02	 2	 19	 9.400885e+01	 9042.jpg	 2750.jpg	 40	 45	 0	 u	 2	 0	 1025.02	 0.43	 0.31	 
101	 0	 1	 02	 2	 20	 9.701341e+01	 6242.jpg	 2683.jpg	 14	 7	 0	 u	 1	 0	 1268.44	 0.69	 0.80	 
101	 0	 1	 02	 2	 21	 1.010195e+02	 9050.jpg	 9321.jpg	 46	 52	 0	 u	 2	 0	 558.32	 0.30	 0.22	 
101	 0	 1	 02	 2	 22	 1.070153e+02	 6560.JPG	 9042.jpg	 42	 40	 1	 i	 2	 0	 834.53	 0.36	 0.43	 
101	 0	 1	 02	 2	 23	 1.100065e+02	 9254.jpg	 9042.jpg	 50	 40	 1	 i	 2	 0	 611.30	 0.25	 0.43	 
101	 0	 1	 02	 2	 24	 1.130110e+02	 9322.jpg	 7359.jpg	 47	 54	 1	 i	 2	 0	 918.71	 0.29	 0.20	 
101	 0	 1	 02	 2	 25	 1.160156e+02	 6242.jpg	 9390.jpg	 14	 20	 0	 u	 1	 0	 762.12	 0.69	 0.65	 
101	 0	 1	 02	 2	 26	 1.230129e+02	 6570.1.JPG	 7078.jpg	 13	 9	 1	 u	 1	 1	 580.79	 0.70	 0.76	 
101	 0	 1	 02	 2	 27	 1.260174e+02	 9561.jpg	 9495.jpg	 22	 10	 0	 u	 1	 0	 952.23	 0.59	 0.75	 
101	 0	 1	 02	 2	 28	 1.290086e+02	 9301.jpg	 9373.jpg	 51	 53	 0	 i	 2	 1	 616.98	 0.24	 0.20	 
101	 0	 1	 02	 2	 29	 1.340162e+02	 9291.jpg	 9480.jpg	 8	 18	 0	 u	 1	 0	 713.36	 0.78	 0.66	 
101	 0	 1	 02	 2	 30	 1.370074e+02	 9321.jpg	 7359.jpg	 52	 54	 1	 i	 2	 0	 666.14	 0.22	 0.20	 
101	 0	 1	 02	 2	 31	 1.410135e+02	 disg3.JPG	 1271.jpg	 44	 48	 1	 u	 2	 1	 820.03	 0.34	 0.28	 
101	 0	 1	 02	 2	 32	 1.470093e+02	 1271.jpg	 2750.jpg	 48	 45	 0	 u	 2	 0	 680.23	 0.28	 0.31	 
101	 0	 1	 02	 2	 33	 1.500138e+02	 9600.jpg	 7078.jpg	 12	 9	 1	 i	 1	 0	 1099.64	 0.70	 0.76	 
101	 0	 1	 02	 2	 34	 1.570111e+02	 7078.jpg	 9090.jpg	 9	 15	 0	 u	 1	 0	 694.31	 0.76	 0.69	 
101	 0	 1	 02	 2	 35	 1.620187e+02	 9495.jpg	 6370.jpg	 10	 17	 1	 u	 1	 1	 646.68	 0.75	 0.69	 
101	 0	 1	 02	 2	 36	 1.660115e+02	 9042.jpg	 9373.jpg	 40	 53	 0	 u	 2	 0	 685.91	 0.43	 0.20	 
101	 0	 1	 02	 2	 37	 1.690160e+02	 disg3.JPG	 7359.jpg	 44	 54	 1	 u	 2	 1	 897.34	 0.34	 0.20	 
101	 0	 1	 02	 2	 38	 1.720072e+02	 9390.jpg	 7078.jpg	 20	 9	 1	 i	 1	 0	 818.12	 0.65	 0.76	 
101	 0	 1	 02	 2	 39	 1.820091e+02	 7359.jpg	 1111.jpg	 54	 39	 0	 u	 2	 0	 848.20	 0.20	 0.44	 
101	 0	 1	 02	 2	 40	 1.930124e+02	 1271.jpg	 6560.JPG	 48	 42	 0	 u	 2	 0	 484.77	 0.28	 0.36	 
101	 0	 1	 02	 2	 41	 1.980067e+02	 9341.jpg	 6838.jpg	 16	 21	 0	 u	 1	 0	 482.49	 0.69	 0.64	 
101	 0	 1	 02	 2	 42	 2.070070e+02	 9254.jpg	 6210.jpg	 50	 49	 1	 u	 2	 1	 730.08	 0.25	 0.26	 
101	 0	 1	 02	 2	 43	 2.100116e+02	 6570.1.JPG	 9561.jpg	 13	 22	 1	 u	 1	 1	 781.50	 0.70	 0.59	 
101	 0	 1	 02	 2	 44	 2.150192e+02	 9341.jpg	 2683.jpg	 16	 7	 0	 u	 1	 0	 621.89	 0.69	 0.80	 
101	 0	 1	 02	 2	 45	 2.180104e+02	 9090.jpg	 6370.jpg	 15	 17	 1	 x	 1	 999	 999000.00	 0.69	 0.69	 
101	 0	 1	 02	 2	 46	 2.270107e+02	 disg3.JPG	 9120.jpg	 44	 43	 1	 u	 2	 1	 790.27	 0.34	 0.35	 
101	 0	 1	 02	 2	 47	 2.370126e+02	 9050.jpg	 9373.jpg	 46	 53	 0	 u	 2	 0	 804.36	 0.30	 0.20	 
101	 0	 1	 02	 2	 48	 2.400171e+02	 6570.1.JPG	 9291.jpg	 13	 8	 1	 u	 1	 1	 1047.76	 0.70	 0.78	 
101	 0	 1	 02	 2	 49	 2.470144e+02	 9291.jpg	 9600.jpg	 8	 12	 0	 u	 1	 0	 642.43	 0.78	 0.70	 
101	 0	 1	 02	 2	 50	 2.500190e+02	 9090.jpg	 6242.jpg	 15	 14	 1	 u	 1	 1	 1013.85	 0.69	 0.69	 
101	 0	 1	 02	 2	 51	 2.530102e+02	 9341.jpg	 9495.jpg	 16	 10	 0	 u	 1	 0	 822.64	 0.69	 0.75	 
101	 0	 1	 02	 2	 52	 2.560147e+02	 9301.jpg	 9254.jpg	 51	 50	 0	 i	 2	 1	 538.04	 0.24	 0.25	 
101	 0	 1	 02	 2	 53	 2.590193e+02	 6838.jpg	 6242.jpg	 21	 14	 1	 u	 1	 1	 525.46	 0.64	 0.69	 
101	 0	 1	 02	 2	 54	 2.630120e+02	 6560.JPG	 9301.jpg	 42	 51	 1	 u	 2	 1	 484.73	 0.36	 0.24	 
101	 0	 1	 02	 2	 55	 2.660166e+02	 6560.JPG	 6210.jpg	 42	 49	 1	 i	 2	 0	 1224.12	 0.36	 0.26	 
101	 0	 1	 02	 2	 56	 2.730139e+02	 7359.jpg	 9254.jpg	 54	 50	 0	 i	 2	 1	 1154.81	 0.20	 0.25	 
101	 0	 1	 02	 2	 57	 2.810127e+02	 9495.jpg	 9291.jpg	 10	 8	 1	 u	 1	 1	 803.94	 0.75	 0.78	 
101	 0	 1	 02	 2	 58	 2.880100e+02	 9322.jpg	 6210.jpg	 47	 49	 1	 i	 2	 0	 670.62	 0.29	 0.26	 
101	 0	 1	 02	 2	 59	 2.970103e+02	 7359.jpg	 9373.jpg	 54	 53	 0	 i	 2	 1	 630.23	 0.20	 0.20	 
101	 0	 1	 02	 2	 60	 3.060106e+02	 9341.jpg	 6570.1.JPG	 16	 13	 0	 u	 1	 0	 701.84	 0.69	 0.70	 
101	 0	 1	 02	 2	 61	 3.110182e+02	 2205.jpg	 6211.jpg	 25	 37	 1	 u	 3	 1	 734.19	 0.54	 0.46	 
101	 0	 1	 02	 2	 62	 3.140094e+02	 2683.jpg	 6370.jpg	 7	 17	 1	 u	 1	 1	 526.98	 0.80	 0.69	 
101	 0	 1	 02	 2	 63	 3.170140e+02	 6250.1.jpg	 9008.jpg	 26	 35	 1	 u	 4	 1	 738.40	 0.54	 0.47	 
101	 0	 1	 02	 2	 64	 3.200185e+02	 6242.jpg	 9600.jpg	 14	 12	 0	 u	 1	 0	 693.83	 0.69	 0.70	 
101	 0	 1	 02	 2	 65	 3.240113e+02	 6210.jpg	 disg3.JPG	 49	 44	 0	 u	 2	 0	 653.07	 0.26	 0.34	 
101	 0	 1	 02	 2	 66	 3.310085e+02	 9341.jpg	 9480.jpg	 16	 18	 0	 u	 1	 0	 551.73	 0.69	 0.66	 
101	 0	 1	 02	 2	 67	 3.340131e+02	 2205.jpg	 9325.jpg	 25	 36	 1	 u	 3	 1	 635.15	 0.54	 0.46	 
101	 0	 1	 02	 2	 68	 3.380192e+02	 6555.jpg	 9373.jpg	 41	 53	 0	 u	 2	 0	 533.05	 0.39	 0.20	 
