subjectID	 scanner	 order	 block	 run	 trial	 onsettime	 ImageLeft	 ImageRight	 bidIndexLeft	 bidIndexRight	 IsleftGo	 Response	 PairType	 Outcome	 RT	 bidLeft	 bidRight	 
n_123	 0	 1	 01	 2	 1	 2.015879e+00	 9322.jpg	 6560.JPG	 52	 41	 1	 i	 2	 0	 1256.92	 0.19	 0.38	 
n_123	 0	 1	 01	 2	 2	 5.007075e+00	 9300.jpg	 9321.jpg	 48	 47	 0	 u	 2	 0	 1289.69	 0.28	 0.31	 
n_123	 0	 1	 01	 2	 3	 1.201769e+01	 3160.jpg	 3103.jpg	 51	 53	 0	 u	 2	 0	 951.01	 0.21	 0.18	 
n_123	 0	 1	 01	 2	 4	 1.601041e+01	 7078.jpg	 6250.1.jpg	 24	 37	 1	 u	 3	 1	 1006.28	 0.60	 0.42	 
n_123	 0	 1	 01	 2	 5	 2.101799e+01	 9321.jpg	 10005.JPG	 47	 40	 1	 i	 2	 0	 686.63	 0.31	 0.40	 
n_123	 0	 1	 01	 2	 6	 2.501070e+01	 2455.jpg	 6370.jpg	 8	 12	 0	 u	 1	 0	 789.87	 0.78	 0.75	 
n_123	 0	 1	 01	 2	 7	 2.901677e+01	 10005.JPG	 10003.JPG	 40	 45	 0	 u	 2	 0	 799.76	 0.40	 0.32	 
n_123	 0	 1	 01	 2	 8	 3.200880e+01	 6210.jpg	 9495.jpg	 16	 7	 0	 i	 1	 1	 1071.72	 0.70	 0.78	 
n_123	 0	 1	 01	 2	 9	 3.501251e+01	 1019.jpg	 9090.jpg	 11	 10	 0	 i	 1	 1	 899.97	 0.75	 0.76	 
n_123	 0	 1	 01	 2	 10	 4.000675e+01	 9425.jpg	 9600.jpg	 19	 18	 0	 u	 1	 0	 913.67	 0.66	 0.66	 
n_123	 0	 1	 01	 2	 11	 4.401281e+01	 6211.jpg	 6838.jpg	 15	 9	 1	 i	 1	 0	 1227.58	 0.72	 0.77	 
n_123	 0	 1	 01	 2	 12	 4.900704e+01	 7359.jpg	 9322.jpg	 49	 52	 0	 u	 2	 0	 1209.29	 0.25	 0.19	 
n_123	 0	 1	 01	 2	 13	 5.301311e+01	 9425.jpg	 9090.jpg	 19	 10	 0	 i	 1	 1	 803.18	 0.66	 0.76	 
n_123	 0	 1	 01	 2	 14	 5.601766e+01	 9322.jpg	 9300.jpg	 52	 48	 1	 i	 2	 0	 1014.60	 0.19	 0.28	 
n_123	 0	 1	 01	 2	 15	 6.001037e+01	 6560.JPG	 1274.jpg	 41	 42	 0	 u	 2	 0	 845.86	 0.38	 0.38	 
n_123	 0	 1	 01	 2	 16	 6.600612e+01	 10003.JPG	 7359.jpg	 45	 49	 1	 i	 2	 0	 850.05	 0.32	 0.25	 
n_123	 0	 1	 01	 2	 17	 7.301673e+01	 1274.jpg	 9561.jpg	 42	 54	 1	 u	 2	 1	 1167.36	 0.38	 0.16	 
n_123	 0	 1	 01	 2	 18	 7.600793e+01	 9561.jpg	 10003.JPG	 54	 45	 0	 x	 2	 999	 999000.00	 0.16	 0.32	 
n_123	 0	 1	 01	 2	 19	 8.101551e+01	 6210.jpg	 6370.jpg	 16	 12	 0	 i	 1	 1	 816.49	 0.70	 0.75	 
n_123	 0	 1	 01	 2	 20	 8.600974e+01	 9291.jpg	 9905.jpg	 13	 22	 1	 u	 1	 1	 1086.23	 0.74	 0.63	 
n_123	 0	 1	 01	 2	 21	 9.201884e+01	 9340.jpg	 9254.jpg	 23	 38	 1	 u	 4	 1	 869.05	 0.62	 0.42	 
n_123	 0	 1	 01	 2	 22	 9.601156e+01	 1205.jpg	 6560.JPG	 39	 41	 1	 u	 2	 1	 812.33	 0.40	 0.38	 
n_123	 0	 1	 01	 2	 23	 1.010058e+02	 6370.jpg	 8480.jpg	 12	 14	 1	 u	 1	 1	 809.99	 0.75	 0.72	 
n_123	 0	 1	 01	 2	 24	 1.080164e+02	 6213.jpg	 6210.jpg	 20	 16	 1	 i	 1	 0	 1271.33	 0.65	 0.70	 
n_123	 0	 1	 01	 2	 25	 1.130106e+02	 6560.JPG	 10003.JPG	 41	 45	 0	 u	 2	 0	 885.07	 0.38	 0.32	 
n_123	 0	 1	 01	 2	 26	 1.180182e+02	 6211.jpg	 1019.jpg	 15	 11	 1	 i	 1	 0	 965.42	 0.72	 0.75	 
n_123	 0	 1	 01	 2	 27	 1.210094e+02	 1274.jpg	 3160.jpg	 42	 51	 1	 u	 2	 1	 1334.19	 0.38	 0.21	 
n_123	 0	 1	 01	 2	 28	 1.240140e+02	 6211.jpg	 2455.jpg	 15	 8	 1	 i	 1	 0	 681.64	 0.72	 0.78	 
n_123	 0	 1	 01	 2	 29	 1.300097e+02	 8480.jpg	 9291.jpg	 14	 13	 0	 u	 1	 0	 1053.82	 0.72	 0.74	 
n_123	 0	 1	 01	 2	 30	 1.340158e+02	 9321.jpg	 9390.jpg	 47	 43	 1	 i	 2	 0	 679.71	 0.31	 0.37	 
n_123	 0	 1	 01	 2	 31	 1.430161e+02	 1019.jpg	 6370.jpg	 11	 12	 0	 i	 1	 1	 799.32	 0.75	 0.75	 
n_123	 0	 1	 01	 2	 32	 1.480103e+02	 9120.jpg	 1019.jpg	 21	 11	 1	 i	 1	 0	 861.06	 0.64	 0.75	 
n_123	 0	 1	 01	 2	 33	 1.570106e+02	 10005.JPG	 1274.jpg	 40	 42	 0	 u	 2	 0	 1300.66	 0.40	 0.38	 
n_123	 0	 1	 01	 2	 34	 1.600151e+02	 6211.jpg	 2457.jpg	 15	 17	 1	 i	 1	 0	 968.09	 0.72	 0.67	 
n_123	 0	 1	 01	 2	 35	 1.640079e+02	 3180.jpg	 3160.jpg	 44	 51	 1	 i	 2	 0	 975.33	 0.33	 0.21	 
n_123	 0	 1	 01	 2	 36	 1.700170e+02	 9490.jpg	 7078.jpg	 36	 24	 0	 i	 3	 1	 998.17	 0.44	 0.60	 
n_123	 0	 1	 01	 2	 37	 1.740097e+02	 9561.jpg	 3180.jpg	 54	 44	 0	 i	 2	 1	 1213.40	 0.16	 0.33	 
n_123	 0	 1	 01	 2	 38	 1.810069e+02	 8480.jpg	 9495.jpg	 14	 7	 0	 i	 1	 1	 1288.08	 0.72	 0.78	 
n_123	 0	 1	 01	 2	 39	 1.870160e+02	 9561.jpg	 3103.jpg	 54	 53	 0	 u	 2	 0	 1038.90	 0.16	 0.18	 
n_123	 0	 1	 01	 2	 40	 1.980060e+02	 7359.jpg	 1205.jpg	 49	 39	 0	 i	 2	 1	 784.81	 0.25	 0.40	 
n_123	 0	 1	 01	 2	 41	 2.030136e+02	 6213.jpg	 9425.jpg	 20	 19	 1	 i	 1	 0	 1169.20	 0.65	 0.66	 
n_123	 0	 1	 01	 2	 42	 2.090093e+02	 10003.JPG	 9390.jpg	 45	 43	 1	 i	 2	 0	 917.38	 0.32	 0.37	 
n_123	 0	 1	 01	 2	 43	 2.200127e+02	 3103.jpg	 7359.jpg	 53	 49	 1	 i	 2	 0	 777.94	 0.18	 0.25	 
n_123	 0	 1	 01	 2	 44	 2.230172e+02	 10003.JPG	 1271.jpg	 45	 46	 1	 x	 2	 999	 999000.00	 0.32	 0.32	 
n_123	 0	 1	 01	 2	 45	 2.270099e+02	 2457.jpg	 6213.jpg	 17	 20	 0	 u	 1	 0	 1284.60	 0.67	 0.65	 
n_123	 0	 1	 01	 2	 46	 2.380133e+02	 9561.jpg	 1205.jpg	 54	 39	 0	 i	 2	 1	 713.17	 0.16	 0.40	 
n_123	 0	 1	 01	 2	 47	 2.420060e+02	 6210.jpg	 9090.jpg	 16	 10	 0	 i	 1	 1	 816.41	 0.70	 0.76	 
n_123	 0	 1	 01	 2	 48	 2.450105e+02	 9905.jpg	 6213.jpg	 22	 20	 0	 u	 1	 0	 995.85	 0.63	 0.65	 
n_123	 0	 1	 01	 2	 49	 2.560139e+02	 2205.jpg	 6242.jpg	 26	 35	 1	 i	 4	 0	 1416.39	 0.58	 0.44	 
n_123	 0	 1	 01	 2	 50	 2.610081e+02	 9120.jpg	 9425.jpg	 21	 19	 1	 i	 1	 0	 1158.10	 0.64	 0.66	 
n_123	 0	 1	 01	 2	 51	 2.680187e+02	 9321.jpg	 6560.JPG	 47	 41	 1	 i	 2	 0	 1251.42	 0.31	 0.38	 
n_123	 0	 1	 01	 2	 52	 2.720114e+02	 1019.jpg	 6213.jpg	 11	 20	 0	 u	 1	 0	 890.67	 0.75	 0.65	 
n_123	 0	 1	 01	 2	 53	 2.760175e+02	 9495.jpg	 6838.jpg	 7	 9	 1	 u	 1	 1	 1364.56	 0.78	 0.77	 
n_123	 0	 1	 01	 2	 54	 2.790087e+02	 3160.jpg	 10003.JPG	 51	 45	 0	 i	 2	 1	 1141.35	 0.21	 0.32	 
n_123	 0	 1	 01	 2	 55	 2.850178e+02	 6210.jpg	 6211.jpg	 16	 15	 0	 i	 1	 1	 1164.19	 0.70	 0.72	 
n_123	 0	 1	 01	 2	 56	 2.890105e+02	 8480.jpg	 9090.jpg	 14	 10	 0	 i	 1	 1	 691.44	 0.72	 0.76	 
n_123	 0	 1	 01	 2	 57	 2.920150e+02	 9600.jpg	 8480.jpg	 18	 14	 1	 x	 1	 999	 999000.00	 0.66	 0.72	 
n_123	 0	 1	 01	 2	 58	 2.990123e+02	 9090.jpg	 2457.jpg	 10	 17	 1	 u	 1	 1	 849.52	 0.76	 0.67	 
n_123	 0	 1	 01	 2	 59	 3.030184e+02	 1205.jpg	 9390.jpg	 39	 43	 1	 u	 2	 1	 811.42	 0.40	 0.37	 
n_123	 0	 1	 01	 2	 60	 3.060096e+02	 9321.jpg	 9561.jpg	 47	 54	 1	 i	 2	 0	 1388.19	 0.31	 0.16	 
n_123	 0	 1	 01	 2	 61	 3.100156e+02	 3180.jpg	 6560.JPG	 44	 41	 1	 x	 2	 999	 999000.00	 0.33	 0.38	 
n_123	 0	 1	 01	 2	 62	 3.130068e+02	 9905.jpg	 9090.jpg	 22	 10	 0	 i	 1	 1	 598.86	 0.63	 0.76	 
n_123	 0	 1	 01	 2	 63	 3.170129e+02	 6560.JPG	 2750.jpg	 41	 50	 0	 u	 2	 0	 880.76	 0.38	 0.23	 
n_123	 0	 1	 01	 2	 64	 3.220075e+02	 3180.jpg	 1271.jpg	 44	 46	 1	 i	 2	 0	 878.12	 0.33	 0.32	 
n_123	 0	 1	 01	 2	 65	 3.250117e+02	 9300.jpg	 1205.jpg	 48	 39	 0	 u	 2	 0	 1201.89	 0.28	 0.40	 
n_123	 0	 1	 01	 2	 66	 3.300059e+02	 6210.jpg	 9291.jpg	 16	 13	 0	 i	 1	 1	 1215.60	 0.70	 0.74	 
n_123	 0	 1	 01	 2	 67	 3.340120e+02	 6210.jpg	 9120.jpg	 16	 21	 0	 i	 1	 1	 1257.49	 0.70	 0.64	 
n_123	 0	 1	 01	 2	 68	 3.380180e+02	 9291.jpg	 1019.jpg	 13	 11	 1	 i	 1	 0	 1107.39	 0.74	 0.75	 
