subjectID	 scanner	 order	 block	 run	 trial	 onsettime	 ImageLeft	 ImageRight	 bidIndexLeft	 bidIndexRight	 IsleftGo	 Response	 PairType	 Outcome	 RT	 bidLeft	 bidRight	 
n_130	 0	 2	 01	 2	 1	 2.015897e+00	 10005.JPG	 6555.jpg	 51	 42	 1	 x	 2	 999	 999000.00	 0.24	 0.36	 
n_130	 0	 2	 01	 2	 2	 5.007104e+00	 1274.jpg	 1271.jpg	 47	 48	 0	 u	 2	 0	 856.47	 0.27	 0.27	 
n_130	 0	 2	 01	 2	 3	 1.201774e+01	 1111.jpg	 7359.jpg	 52	 54	 0	 u	 2	 0	 789.78	 0.23	 0.18	 
n_130	 0	 2	 01	 2	 4	 1.601047e+01	 2205.jpg	 9373.jpg	 23	 38	 1	 u	 3	 1	 941.01	 0.61	 0.43	 
n_130	 0	 2	 01	 2	 5	 2.101807e+01	 1271.jpg	 2750.jpg	 48	 39	 1	 i	 2	 0	 813.40	 0.27	 0.40	 
n_130	 0	 2	 01	 2	 6	 2.501080e+01	 9340.jpg	 6242.jpg	 7	 11	 0	 u	 1	 0	 1380.63	 0.82	 0.71	 
n_130	 0	 2	 01	 2	 7	 2.901688e+01	 2750.jpg	 1019.jpg	 39	 46	 0	 i	 2	 1	 1470.51	 0.40	 0.28	 
n_130	 0	 2	 01	 2	 8	 3.200808e+01	 8480.jpg	 9050.jpg	 15	 8	 0	 u	 1	 0	 863.30	 0.70	 0.78	 
n_130	 0	 2	 01	 2	 9	 3.501264e+01	 9905.jpg	 9622.jpg	 12	 9	 0	 u	 1	 0	 1122.70	 0.71	 0.74	 
n_130	 0	 2	 01	 2	 10	 4.000689e+01	 6370.jpg	 2457.jpg	 20	 17	 0	 u	 1	 0	 640.46	 0.66	 0.67	 
n_130	 0	 2	 01	 2	 11	 4.401297e+01	 9490.jpg	 9341.jpg	 16	 10	 1	 u	 1	 1	 794.34	 0.67	 0.72	 
n_130	 0	 2	 01	 2	 12	 4.900722e+01	 1205.jpg	 10005.JPG	 50	 51	 0	 u	 2	 0	 696.07	 0.24	 0.24	 
n_130	 0	 2	 01	 2	 13	 5.301330e+01	 6370.jpg	 9622.jpg	 20	 9	 0	 u	 1	 0	 561.95	 0.66	 0.74	 
n_130	 0	 2	 01	 2	 14	 5.601786e+01	 10005.JPG	 1274.jpg	 51	 47	 1	 i	 2	 0	 821.36	 0.24	 0.27	 
n_130	 0	 2	 01	 2	 15	 6.001058e+01	 6555.jpg	 3160.jpg	 42	 41	 0	 u	 2	 0	 844.64	 0.36	 0.36	 
n_130	 0	 2	 01	 2	 16	 6.600635e+01	 1019.jpg	 1205.jpg	 46	 50	 1	 u	 2	 1	 704.81	 0.28	 0.24	 
n_130	 0	 2	 01	 2	 17	 7.301699e+01	 3160.jpg	 9300.jpg	 41	 53	 1	 u	 2	 1	 654.12	 0.36	 0.21	 
n_130	 0	 2	 01	 2	 18	 7.600820e+01	 9300.jpg	 1019.jpg	 53	 46	 0	 i	 2	 1	 734.90	 0.21	 0.28	 
n_130	 0	 2	 01	 2	 19	 8.101580e+01	 8480.jpg	 6242.jpg	 15	 11	 0	 u	 1	 0	 1071.25	 0.70	 0.71	 
n_130	 0	 2	 01	 2	 20	 8.601004e+01	 9561.jpg	 9090.jpg	 14	 21	 1	 i	 1	 0	 908.99	 0.70	 0.65	 
n_130	 0	 2	 01	 2	 21	 9.200584e+01	 9120.jpg	 3103.jpg	 24	 37	 1	 u	 4	 1	 1361.13	 0.61	 0.44	 
n_130	 0	 2	 01	 2	 22	 9.601189e+01	 6250.1.jpg	 6555.jpg	 40	 42	 1	 i	 2	 0	 891.06	 0.40	 0.36	 
n_130	 0	 2	 01	 2	 23	 1.010061e+02	 6242.jpg	 9480.jpg	 11	 13	 1	 i	 1	 0	 616.79	 0.71	 0.70	 
n_130	 0	 2	 01	 2	 24	 1.080168e+02	 9330.jpg	 8480.jpg	 19	 15	 1	 i	 1	 0	 582.12	 0.67	 0.70	 
n_130	 0	 2	 01	 2	 25	 1.130110e+02	 6555.jpg	 1019.jpg	 42	 46	 0	 u	 2	 0	 1475.81	 0.36	 0.28	 
n_130	 0	 2	 01	 2	 26	 1.180186e+02	 9490.jpg	 9905.jpg	 16	 12	 1	 i	 1	 0	 996.17	 0.67	 0.71	 
n_130	 0	 2	 01	 2	 27	 1.210098e+02	 3160.jpg	 1111.jpg	 41	 52	 1	 i	 2	 0	 660.95	 0.36	 0.23	 
n_130	 0	 2	 01	 2	 28	 1.240144e+02	 9490.jpg	 9340.jpg	 16	 7	 1	 i	 1	 0	 680.39	 0.67	 0.82	 
n_130	 0	 2	 01	 2	 29	 1.300102e+02	 9480.jpg	 9561.jpg	 13	 14	 0	 u	 1	 0	 620.58	 0.70	 0.70	 
n_130	 0	 2	 01	 2	 30	 1.340162e+02	 1271.jpg	 9322.jpg	 48	 44	 1	 u	 2	 1	 614.47	 0.27	 0.32	 
n_130	 0	 2	 01	 2	 31	 1.430166e+02	 9905.jpg	 6242.jpg	 12	 11	 0	 i	 1	 1	 990.08	 0.71	 0.71	 
n_130	 0	 2	 01	 2	 32	 1.480108e+02	 2039.jpg	 9905.jpg	 22	 12	 1	 i	 1	 0	 1067.81	 0.64	 0.71	 
n_130	 0	 2	 01	 2	 33	 1.570111e+02	 2750.jpg	 3160.jpg	 39	 41	 0	 u	 2	 0	 1155.39	 0.40	 0.36	 
n_130	 0	 2	 01	 2	 34	 1.600157e+02	 9490.jpg	 9254.jpg	 16	 18	 1	 x	 1	 999	 999000.00	 0.67	 0.67	 
n_130	 0	 2	 01	 2	 35	 1.640084e+02	 2683.jpg	 1111.jpg	 43	 52	 1	 i	 2	 0	 638.08	 0.36	 0.23	 
n_130	 0	 2	 01	 2	 36	 1.700175e+02	 7078.jpg	 2205.jpg	 35	 23	 0	 i	 3	 1	 500.92	 0.46	 0.61	 
n_130	 0	 2	 01	 2	 37	 1.740103e+02	 9300.jpg	 2683.jpg	 53	 43	 0	 i	 2	 1	 1116.16	 0.21	 0.36	 
n_130	 0	 2	 01	 2	 38	 1.810076e+02	 9480.jpg	 9050.jpg	 13	 8	 0	 u	 1	 0	 1158.82	 0.70	 0.78	 
n_130	 0	 2	 01	 2	 39	 1.870167e+02	 9300.jpg	 7359.jpg	 53	 54	 0	 i	 2	 1	 717.68	 0.21	 0.18	 
n_130	 0	 2	 01	 2	 40	 1.980067e+02	 1205.jpg	 6250.1.jpg	 50	 40	 0	 u	 2	 0	 895.60	 0.24	 0.40	 
n_130	 0	 2	 01	 2	 41	 2.030143e+02	 9330.jpg	 6370.jpg	 19	 20	 1	 i	 1	 0	 575.94	 0.67	 0.66	 
n_130	 0	 2	 01	 2	 42	 2.090101e+02	 1019.jpg	 9322.jpg	 46	 44	 1	 u	 2	 1	 884.14	 0.28	 0.32	 
n_130	 0	 2	 01	 2	 43	 2.200134e+02	 7359.jpg	 1205.jpg	 54	 50	 1	 i	 2	 0	 1096.72	 0.18	 0.24	 
n_130	 0	 2	 01	 2	 44	 2.230180e+02	 1019.jpg	 6838.jpg	 46	 45	 1	 x	 2	 999	 999000.00	 0.28	 0.31	 
n_130	 0	 2	 01	 2	 45	 2.270107e+02	 9254.jpg	 9330.jpg	 18	 19	 0	 u	 1	 0	 1347.37	 0.67	 0.67	 
n_130	 0	 2	 01	 2	 46	 2.380141e+02	 9300.jpg	 6250.1.jpg	 53	 40	 0	 i	 2	 1	 1031.94	 0.21	 0.40	 
n_130	 0	 2	 01	 2	 47	 2.420068e+02	 8480.jpg	 9622.jpg	 15	 9	 0	 u	 1	 0	 911.19	 0.70	 0.74	 
n_130	 0	 2	 01	 2	 48	 2.450114e+02	 9090.jpg	 9330.jpg	 21	 19	 0	 u	 1	 0	 1234.58	 0.65	 0.67	 
n_130	 0	 2	 01	 2	 49	 2.560147e+02	 9425.jpg	 2799.jpg	 25	 36	 1	 x	 4	 999	 999000.00	 0.60	 0.45	 
n_130	 0	 2	 01	 2	 50	 2.610090e+02	 2039.jpg	 6370.jpg	 22	 20	 1	 i	 1	 0	 532.87	 0.64	 0.66	 
n_130	 0	 2	 01	 2	 51	 2.680063e+02	 1271.jpg	 6555.jpg	 48	 42	 1	 i	 2	 0	 623.55	 0.27	 0.36	 
n_130	 0	 2	 01	 2	 52	 2.720123e+02	 9905.jpg	 9330.jpg	 12	 19	 0	 u	 1	 0	 489.43	 0.71	 0.67	 
n_130	 0	 2	 01	 2	 53	 2.760184e+02	 9050.jpg	 9341.jpg	 8	 10	 1	 u	 1	 1	 563.34	 0.78	 0.72	 
n_130	 0	 2	 01	 2	 54	 2.790096e+02	 1111.jpg	 1019.jpg	 52	 46	 0	 i	 2	 1	 916.11	 0.23	 0.28	 
n_130	 0	 2	 01	 2	 55	 2.850187e+02	 8480.jpg	 9490.jpg	 15	 16	 0	 u	 1	 0	 682.94	 0.70	 0.67	 
n_130	 0	 2	 01	 2	 56	 2.890115e+02	 9480.jpg	 9622.jpg	 13	 9	 0	 u	 1	 0	 818.18	 0.70	 0.74	 
n_130	 0	 2	 01	 2	 57	 2.920160e+02	 2457.jpg	 9480.jpg	 17	 13	 1	 u	 1	 1	 725.62	 0.67	 0.70	 
n_130	 0	 2	 01	 2	 58	 2.990133e+02	 9622.jpg	 9254.jpg	 9	 18	 1	 i	 1	 0	 816.29	 0.74	 0.67	 
n_130	 0	 2	 01	 2	 59	 3.030060e+02	 6250.1.jpg	 9322.jpg	 40	 44	 1	 i	 2	 0	 1495.52	 0.40	 0.32	 
n_130	 0	 2	 01	 2	 60	 3.060106e+02	 1271.jpg	 9300.jpg	 48	 53	 1	 u	 2	 1	 890.94	 0.27	 0.21	 
n_130	 0	 2	 01	 2	 61	 3.100167e+02	 2683.jpg	 6555.jpg	 43	 42	 1	 i	 2	 0	 916.84	 0.36	 0.36	 
n_130	 0	 2	 01	 2	 62	 3.130079e+02	 9090.jpg	 9622.jpg	 21	 9	 0	 u	 1	 0	 869.60	 0.65	 0.74	 
n_130	 0	 2	 01	 2	 63	 3.170140e+02	 6555.jpg	 10003.JPG	 42	 49	 0	 u	 2	 0	 895.49	 0.36	 0.25	 
n_130	 0	 2	 01	 2	 64	 3.220082e+02	 2683.jpg	 6838.jpg	 43	 45	 1	 i	 2	 0	 637.22	 0.36	 0.31	 
n_130	 0	 2	 01	 2	 65	 3.250128e+02	 1274.jpg	 6250.1.jpg	 47	 40	 0	 u	 2	 0	 624.65	 0.27	 0.40	 
n_130	 0	 2	 01	 2	 66	 3.300070e+02	 8480.jpg	 9561.jpg	 15	 14	 0	 u	 1	 0	 766.38	 0.70	 0.70	 
n_130	 0	 2	 01	 2	 67	 3.340131e+02	 8480.jpg	 2039.jpg	 15	 22	 0	 u	 1	 0	 648.27	 0.70	 0.64	 
n_130	 0	 2	 01	 2	 68	 3.380058e+02	 9561.jpg	 9905.jpg	 14	 12	 1	 i	 1	 0	 527.50	 0.70	 0.71	 
