subjectID	 scanner	 order	 block	 run	 trial	 onsettime	 ImageLeft	 ImageRight	 bidIndexLeft	 bidIndexRight	 IsleftGo	 Response	 PairType	 Outcome	 RT	 bidLeft	 bidRight	 
p_129	 0	 1	 01	 1	 1	 2.015734e+00	 6213.jpg	 6838.jpg	 39	 51	 1	 u	 2	 1	 1243.74	 0.35	 0.26	 
p_129	 0	 1	 01	 1	 2	 7.009980e+00	 2039.jpg	 10002.JPG	 13	 9	 1	 i	 1	 0	 745.45	 0.74	 0.75	 
p_129	 0	 1	 01	 1	 3	 1.500879e+01	 6250.1.jpg	 9341.jpg	 48	 53	 0	 u	 2	 0	 1370.60	 0.27	 0.23	 
p_129	 0	 1	 01	 1	 4	 1.801335e+01	 3180.jpg	 2205.jpg	 47	 49	 1	 i	 2	 0	 1102.01	 0.29	 0.27	 
p_129	 0	 1	 01	 1	 5	 2.501063e+01	 6250.1.jpg	 9622.jpg	 48	 44	 0	 u	 2	 0	 1128.67	 0.27	 0.32	 
p_129	 0	 1	 01	 1	 6	 2.801519e+01	 9373.jpg	 7359.jpg	 17	 18	 0	 u	 1	 0	 1212.09	 0.71	 0.71	 
p_129	 0	 1	 01	 1	 7	 3.900521e+01	 9008.jpg	 9301.jpg	 7	 8	 1	 i	 1	 0	 478.02	 0.76	 0.76	 
p_129	 0	 1	 01	 1	 8	 4.301129e+01	 9480.jpg	 10002.JPG	 21	 9	 1	 i	 1	 0	 439.91	 0.67	 0.75	 
p_129	 0	 1	 01	 1	 9	 4.701737e+01	 10002.JPG	 1274.jpg	 9	 20	 0	 i	 1	 1	 673.80	 0.75	 0.68	 
p_129	 0	 1	 01	 1	 10	 5.000857e+01	 9490.jpg	 2750.jpg	 40	 50	 0	 i	 2	 1	 642.56	 0.35	 0.26	 
p_129	 0	 1	 01	 1	 11	 5.301313e+01	 9008.jpg	 9322.jpg	 7	 22	 1	 u	 1	 1	 757.99	 0.76	 0.64	 
p_129	 0	 1	 01	 1	 12	 5.800738e+01	 6570.1.JPG	 6250.1.jpg	 42	 48	 1	 i	 2	 0	 435.71	 0.32	 0.27	 
p_129	 0	 1	 01	 1	 13	 6.201346e+01	 2205.jpg	 2750.jpg	 49	 50	 0	 i	 2	 1	 1069.59	 0.27	 0.26	 
p_129	 0	 1	 01	 1	 14	 7.101379e+01	 3500.jpg	 9490.jpg	 52	 40	 1	 u	 2	 1	 661.21	 0.24	 0.35	 
p_129	 0	 1	 01	 1	 15	 7.400499e+01	 9322.jpg	 7359.jpg	 22	 18	 0	 i	 1	 1	 645.98	 0.64	 0.71	 
p_129	 0	 1	 01	 1	 16	 7.901259e+01	 9042.jpg	 9325.jpg	 37	 25	 0	 u	 3	 0	 614.36	 0.42	 0.55	 
p_129	 0	 1	 01	 1	 17	 8.500836e+01	 9390.jpg	 1019.jpg	 14	 15	 0	 i	 1	 1	 490.54	 0.72	 0.72	 
p_129	 0	 1	 01	 1	 18	 8.801292e+01	 9322.jpg	 1205.jpg	 22	 12	 0	 u	 1	 0	 1101.96	 0.64	 0.74	 
p_129	 0	 1	 01	 1	 19	 9.300717e+01	 7359.jpg	 10002.JPG	 18	 9	 1	 i	 1	 0	 443.69	 0.71	 0.75	 
p_129	 0	 1	 01	 1	 20	 9.701325e+01	 7359.jpg	 1301.jpg	 18	 16	 1	 u	 1	 1	 613.57	 0.71	 0.72	 
p_129	 0	 1	 01	 1	 21	 1.020075e+02	 10002.JPG	 1205.jpg	 9	 12	 0	 i	 1	 1	 403.29	 0.75	 0.74	 
p_129	 0	 1	 01	 1	 22	 1.070151e+02	 3180.jpg	 6242.jpg	 47	 46	 1	 i	 2	 0	 643.66	 0.29	 0.30	 
p_129	 0	 1	 01	 1	 23	 1.100063e+02	 9390.jpg	 9480.jpg	 14	 21	 0	 u	 1	 0	 596.43	 0.72	 0.67	 
p_129	 0	 1	 01	 1	 24	 1.130109e+02	 7359.jpg	 9301.jpg	 18	 8	 1	 u	 1	 1	 743.85	 0.71	 0.76	 
p_129	 0	 1	 01	 1	 25	 1.250157e+02	 2039.jpg	 9301.jpg	 13	 8	 1	 u	 1	 1	 1282.90	 0.74	 0.76	 
p_129	 0	 1	 01	 1	 26	 1.290085e+02	 9373.jpg	 9480.jpg	 17	 21	 0	 i	 1	 1	 826.13	 0.71	 0.67	 
p_129	 0	 1	 01	 1	 27	 1.320130e+02	 6242.jpg	 9341.jpg	 46	 53	 0	 x	 2	 999	 999000.00	 0.30	 0.23	 
p_129	 0	 1	 01	 1	 28	 1.390103e+02	 9341.jpg	 1111.jpg	 53	 43	 1	 x	 2	 999	 999000.00	 0.23	 0.32	 
p_129	 0	 1	 01	 1	 29	 1.420149e+02	 1111.jpg	 2750.jpg	 43	 50	 0	 i	 2	 1	 539.64	 0.32	 0.26	 
p_129	 0	 1	 01	 1	 30	 1.490122e+02	 9480.jpg	 9301.jpg	 21	 8	 1	 u	 1	 1	 758.30	 0.67	 0.76	 
p_129	 0	 1	 01	 1	 31	 1.540064e+02	 9322.jpg	 1019.jpg	 22	 15	 0	 i	 1	 1	 548.05	 0.64	 0.72	 
p_129	 0	 1	 01	 1	 32	 1.580125e+02	 9008.jpg	 9090.jpg	 7	 19	 1	 i	 1	 0	 717.92	 0.76	 0.69	 
p_129	 0	 1	 01	 1	 33	 1.630067e+02	 9480.jpg	 9322.jpg	 21	 22	 1	 u	 1	 1	 571.64	 0.67	 0.64	 
p_129	 0	 1	 01	 1	 34	 1.690159e+02	 9300.jpg	 7359.jpg	 11	 18	 0	 i	 1	 1	 978.49	 0.74	 0.71	 
p_129	 0	 1	 01	 1	 35	 1.730086e+02	 6250.1.jpg	 2750.jpg	 48	 50	 0	 x	 2	 999	 999000.00	 0.27	 0.26	 
p_129	 0	 1	 01	 1	 36	 1.760131e+02	 3500.jpg	 1111.jpg	 52	 43	 1	 u	 2	 1	 381.15	 0.24	 0.32	 
p_129	 0	 1	 01	 1	 37	 1.790044e+02	 6213.jpg	 6242.jpg	 39	 46	 1	 i	 2	 0	 525.94	 0.35	 0.30	 
p_129	 0	 1	 01	 1	 38	 1.820089e+02	 9120.jpg	 2750.jpg	 54	 50	 0	 u	 2	 0	 1281.35	 0.19	 0.26	 
p_129	 0	 1	 01	 1	 39	 1.860150e+02	 9390.jpg	 1274.jpg	 14	 20	 0	 i	 1	 1	 875.25	 0.72	 0.68	 
p_129	 0	 1	 01	 1	 40	 1.900077e+02	 9300.jpg	 9008.jpg	 11	 7	 0	 u	 1	 0	 642.50	 0.74	 0.76	 
p_129	 0	 1	 01	 1	 41	 1.960168e+02	 9090.jpg	 1019.jpg	 19	 15	 0	 i	 1	 1	 793.33	 0.69	 0.72	 
p_129	 0	 1	 01	 1	 42	 2.050172e+02	 10005.JPG	 9301.jpg	 10	 8	 1	 u	 1	 1	 736.93	 0.74	 0.76	 
p_129	 0	 1	 01	 1	 43	 2.080084e+02	 9495.jpg	 9341.jpg	 41	 53	 0	 x	 2	 999	 999000.00	 0.34	 0.23	 
p_129	 0	 1	 01	 1	 44	 2.120145e+02	 6570.1.JPG	 6242.jpg	 42	 46	 1	 i	 2	 0	 411.60	 0.32	 0.30	 
p_129	 0	 1	 01	 1	 45	 2.170087e+02	 9561.jpg	 6250.1.jpg	 45	 48	 1	 x	 2	 999	 999000.00	 0.30	 0.27	 
p_129	 0	 1	 01	 1	 46	 2.200133e+02	 10005.JPG	 10002.JPG	 10	 9	 1	 x	 1	 999	 999000.00	 0.74	 0.75	 
p_129	 0	 1	 01	 1	 47	 2.240060e+02	 9425.jpg	 6370.jpg	 35	 23	 0	 i	 4	 1	 740.00	 0.44	 0.61	 
p_129	 0	 1	 01	 1	 48	 2.340078e+02	 9373.jpg	 9008.jpg	 17	 7	 0	 u	 1	 0	 434.09	 0.71	 0.76	 
p_129	 0	 1	 01	 1	 49	 2.370124e+02	 6555.jpg	 2799.jpg	 26	 38	 1	 x	 4	 999	 999000.00	 0.54	 0.42	 
p_129	 0	 1	 01	 1	 50	 2.470142e+02	 6570.1.JPG	 1111.jpg	 42	 43	 1	 u	 2	 1	 611.57	 0.32	 0.32	 
p_129	 0	 1	 01	 1	 51	 2.520085e+02	 3500.jpg	 6242.jpg	 52	 46	 1	 i	 2	 0	 545.31	 0.24	 0.30	 
p_129	 0	 1	 01	 1	 52	 2.570161e+02	 9622.jpg	 1111.jpg	 44	 43	 1	 u	 2	 1	 1249.65	 0.32	 0.32	 
p_129	 0	 1	 01	 1	 53	 2.620103e+02	 9373.jpg	 1205.jpg	 17	 12	 0	 i	 1	 1	 671.40	 0.71	 0.74	 
p_129	 0	 1	 01	 1	 54	 2.650149e+02	 9490.jpg	 6213.jpg	 40	 39	 0	 u	 2	 0	 642.80	 0.35	 0.35	 
p_129	 0	 1	 01	 1	 55	 2.690076e+02	 6242.jpg	 2750.jpg	 46	 50	 0	 x	 2	 999	 999000.00	 0.30	 0.26	 
p_129	 0	 1	 01	 1	 56	 2.770064e+02	 9090.jpg	 2039.jpg	 19	 13	 0	 i	 1	 1	 795.19	 0.69	 0.74	 
p_129	 0	 1	 01	 1	 57	 2.810125e+02	 9490.jpg	 9341.jpg	 40	 53	 0	 u	 2	 0	 549.10	 0.35	 0.23	 
p_129	 0	 1	 01	 1	 58	 2.840171e+02	 3500.jpg	 9120.jpg	 52	 54	 1	 i	 2	 0	 584.50	 0.24	 0.19	 
p_129	 0	 1	 01	 1	 59	 2.870083e+02	 1274.jpg	 9301.jpg	 20	 8	 1	 u	 1	 1	 793.27	 0.68	 0.76	 
p_129	 0	 1	 01	 1	 60	 3.000147e+02	 9622.jpg	 9490.jpg	 44	 40	 1	 i	 2	 0	 602.78	 0.32	 0.35	 
p_129	 0	 1	 01	 1	 61	 3.030059e+02	 3160.jpg	 9325.jpg	 36	 25	 0	 u	 3	 0	 891.57	 0.44	 0.55	 
p_129	 0	 1	 01	 1	 62	 3.070120e+02	 3500.jpg	 6838.jpg	 52	 51	 1	 x	 2	 999	 999000.00	 0.24	 0.26	 
p_129	 0	 1	 01	 1	 63	 3.120062e+02	 9090.jpg	 1205.jpg	 19	 12	 0	 i	 1	 1	 563.19	 0.69	 0.74	 
p_129	 0	 1	 01	 1	 64	 3.210065e+02	 6838.jpg	 2750.jpg	 51	 50	 0	 u	 2	 0	 346.80	 0.26	 0.26	 
p_129	 0	 1	 01	 1	 65	 3.240111e+02	 9622.jpg	 2205.jpg	 44	 49	 1	 i	 2	 0	 686.21	 0.32	 0.27	 
p_129	 0	 1	 01	 1	 66	 3.270157e+02	 3180.jpg	 6838.jpg	 47	 51	 1	 u	 2	 1	 513.63	 0.29	 0.26	 
p_129	 0	 1	 01	 1	 67	 3.330114e+02	 9373.jpg	 2039.jpg	 17	 13	 0	 u	 1	 0	 389.84	 0.71	 0.74	 
p_129	 0	 1	 01	 1	 68	 3.380057e+02	 6570.1.JPG	 2205.jpg	 42	 49	 1	 u	 2	 1	 451.54	 0.32	 0.27	 
