subjectID	scanner	order	block	run	trial	onsettime	ImageLeft	ImageRight	bidIndexLeft	bidIndexRight	IsleftGo	Response	PairType	Outcome	RT	bidLeft	bidRight	
BSOV_122	 0	 2	 01	 1	 1	 2.035258e+00	 ClickBlackWhite3.bmp	 Kitkat.bmp	 11	 7	 1	 u	 1	 1	 715.04	 6.69	 7.73	 
BSOV_122	 0	 2	 01	 1	 2	 6.023085e+00	 CrunchBisquitWhite2.bmp	 Smarties.bmp	 6	 56	 1	 u	 4	 1	 839.18	 7.80	 0.82	 
BSOV_122	 0	 2	 01	 1	 3	 1.002747e+01	 BambaNugat.bmp	 Kitkat.bmp	 16	 7	 1	 u	 1	 1	 1154.81	 6.07	 7.73	 
BSOV_122	 0	 2	 01	 1	 4	 1.503319e+01	 DoritosNatural.bmp	 Twix.bmp	 17	 18	 1	 i	 1	 0	 669.09	 6.07	 5.91	 
BSOV_122	 0	 2	 01	 1	 5	 2.402659e+01	 Hit.bmp	 ClickXLwhite4.bmp	 8	 15	 1	 i	 1	 0	 795.68	 7.67	 6.13	 
BSOV_122	 0	 2	 01	 1	 6	 2.803108e+01	 BambaSweet.bmp	 Bounty.bmp	 54	 47	 1	 i	 2	 0	 1207.22	 0.96	 2.40	 
BSOV_122	 0	 2	 01	 1	 7	 3.702450e+01	 BabyDoll.bmp	 SkittlesSour4.bmp	 51	 52	 1	 i	 2	 0	 829.77	 1.27	 1.16	 
BSOV_122	 0	 2	 01	 1	 8	 4.303121e+01	 KashitSour.bmp	 Mentos.bmp	 50	 49	 0	 i	 2	 1	 887.06	 1.27	 1.42	 
BSOV_122	 0	 2	 01	 1	 9	 4.701883e+01	 CrunchBisquitBrown3.bmp	 ClickBalls5.bmp	 9	 13	 1	 u	 1	 1	 739.45	 7.60	 6.20	 
BSOV_122	 0	 2	 01	 1	 10	 5.002247e+01	 Popco.bmp	 Bounty.bmp	 48	 47	 1	 i	 2	 0	 903.81	 1.87	 2.40	 
BSOV_122	 0	 2	 01	 1	 11	 5.402688e+01	 KashitSour.bmp	 BambaSweet.bmp	 50	 54	 0	 u	 2	 0	 947.40	 1.27	 0.96	 
BSOV_122	 0	 2	 01	 1	 12	 6.302035e+01	 ClickXLbrown4.bmp	 KifkefMaklot2.bmp	 10	 14	 0	 u	 1	 0	 1097.92	 7.31	 6.16	 
BSOV_122	 0	 2	 01	 1	 13	 6.602372e+01	 KashitSour.bmp	 KinderJoy.bmp	 50	 46	 0	 i	 2	 1	 774.55	 1.27	 2.87	 
BSOV_122	 0	 2	 01	 1	 14	 6.902702e+01	 Popco.bmp	 WerthersOriginal.bmp	 48	 53	 1	 i	 2	 0	 723.25	 1.87	 1.00	 
BSOV_122	 0	 2	 01	 1	 15	 7.203045e+01	 Keifli.bmp	 KinderJoy.bmp	 44	 46	 0	 i	 2	 1	 1023.82	 3.09	 2.87	 
BSOV_122	 0	 2	 01	 1	 16	 7.701919e+01	 Kitkat.bmp	 CrunchBisquitBrown3.bmp	 7	 9	 0	 i	 1	 1	 1051.08	 7.73	 7.60	 
BSOV_122	 0	 2	 01	 1	 17	 8.002269e+01	 BisliOnion.bmp	 ClickBlackWhite3.bmp	 12	 11	 0	 i	 1	 1	 839.57	 6.27	 6.69	 
BSOV_122	 0	 2	 01	 1	 18	 8.402720e+01	 Twix.bmp	 BambaNugat.bmp	 18	 16	 0	 i	 1	 1	 771.07	 5.91	 6.07	 
BSOV_122	 0	 2	 01	 1	 19	 8.903285e+01	 Twix.bmp	 CrunchBisquitBrown3.bmp	 18	 9	 0	 u	 1	 0	 589.43	 5.91	 7.60	 
BSOV_122	 0	 2	 01	 1	 20	 9.902745e+01	 WerthersOriginal.bmp	 Mentos.bmp	 53	 49	 0	 i	 2	 1	 866.82	 1.00	 1.42	 
BSOV_122	 0	 2	 01	 1	 21	 1.030319e+02	 ClickBalls5.bmp	 DoritosNatural.bmp	 13	 17	 0	 u	 1	 0	 774.34	 6.20	 6.07	 
BSOV_122	 0	 2	 01	 1	 22	 1.100232e+02	 BabyDoll.bmp	 Keifli.bmp	 51	 44	 1	 i	 2	 0	 895.12	 1.27	 3.09	 
BSOV_122	 0	 2	 01	 1	 23	 1.140276e+02	 Kitkat.bmp	 KifkefMaklot2.bmp	 7	 14	 0	 u	 1	 0	 1034.67	 7.73	 6.16	 
BSOV_122	 0	 2	 01	 1	 24	 1.180321e+02	 BabyDoll.bmp	 KashitSour.bmp	 51	 50	 1	 i	 2	 0	 854.15	 1.27	 1.27	 
BSOV_122	 0	 2	 01	 1	 25	 1.210185e+02	 ClickBalls5.bmp	 ClickBlackWhite3.bmp	 13	 11	 0	 i	 1	 1	 987.73	 6.20	 6.69	 
BSOV_122	 0	 2	 01	 1	 26	 1.260245e+02	 Keifli.bmp	 CrunchShokoVanil.bmp	 44	 43	 0	 u	 2	 0	 965.82	 3.09	 3.24	 
BSOV_122	 0	 2	 01	 1	 27	 1.310300e+02	 Hit.bmp	 ClickBalls5.bmp	 8	 13	 1	 u	 1	 1	 992.24	 7.67	 6.20	 
BSOV_122	 0	 2	 01	 1	 28	 1.390224e+02	 SkittlesSour4.bmp	 Mentos.bmp	 52	 49	 0	 i	 2	 1	 1087.92	 1.16	 1.42	 
BSOV_122	 0	 2	 01	 1	 29	 1.420256e+02	 Snickers.bmp	 KinderJoy.bmp	 45	 46	 0	 i	 2	 1	 828.66	 3.04	 2.87	 
BSOV_122	 0	 2	 01	 1	 30	 1.490335e+02	 Snickers.bmp	 CrunchShokoVanil.bmp	 45	 43	 0	 i	 2	 1	 908.75	 3.04	 3.24	 
BSOV_122	 0	 2	 01	 1	 31	 1.550236e+02	 ClickXLbrown4.bmp	 Hit.bmp	 10	 8	 0	 i	 1	 1	 862.65	 7.31	 7.67	 
BSOV_122	 0	 2	 01	 1	 32	 1.600292e+02	 Bounty.bmp	 CrunchShokoVanil.bmp	 47	 43	 0	 u	 2	 0	 953.06	 2.40	 3.24	 
BSOV_122	 0	 2	 01	 1	 33	 1.640337e+02	 BabyDoll.bmp	 Snickers.bmp	 51	 45	 1	 i	 2	 0	 1100.56	 1.27	 3.04	 
BSOV_122	 0	 2	 01	 1	 34	 1.700237e+02	 SkittlesSour4.bmp	 BambaSweet.bmp	 52	 54	 0	 i	 2	 1	 734.57	 1.16	 0.96	 
BSOV_122	 0	 2	 01	 1	 35	 1.740283e+02	 WerthersOriginal.bmp	 KinderJoy.bmp	 53	 46	 0	 i	 2	 1	 1074.00	 1.00	 2.87	 
BSOV_122	 0	 2	 01	 1	 36	 1.780328e+02	 Bounty.bmp	 BabyDoll.bmp	 47	 51	 0	 u	 2	 0	 1005.49	 2.40	 1.27	 
BSOV_122	 0	 2	 01	 1	 37	 1.840228e+02	 BambaNugat.bmp	 ClickXLbrown4.bmp	 16	 10	 1	 u	 1	 1	 959.44	 6.07	 7.31	 
BSOV_122	 0	 2	 01	 1	 38	 1.940340e+02	 Smarties.bmp	 ChocolateParaMilk3.bmp	 56	 5	 0	 i	 4	 1	 828.21	 0.82	 8.27	 
BSOV_122	 0	 2	 01	 1	 39	 1.980218e+02	 Twix.bmp	 KifkefMaklot2.bmp	 18	 14	 0	 u	 1	 0	 1264.47	 5.91	 6.16	 
BSOV_122	 0	 2	 01	 1	 40	 2.050297e+02	 BisliOnion.bmp	 BambaNugat.bmp	 12	 16	 0	 i	 1	 1	 968.60	 6.27	 6.07	 
BSOV_122	 0	 2	 01	 1	 41	 2.080331e+02	 ChocolateParaMilk3.bmp	 GumiSnakes3.bmp	 5	 55	 1	 u	 4	 1	 837.16	 8.27	 0.96	 
BSOV_122	 0	 2	 01	 1	 42	 2.120209e+02	 BambaSweet.bmp	 Snickers.bmp	 54	 45	 1	 u	 2	 1	 1249.33	 0.96	 3.04	 
BSOV_122	 0	 2	 01	 1	 43	 2.190288e+02	 WerthersOriginal.bmp	 CrunchShokoVanil.bmp	 53	 43	 0	 i	 2	 1	 1169.49	 1.00	 3.24	 
BSOV_122	 0	 2	 01	 1	 44	 2.230332e+02	 ClickBalls5.bmp	 BambaNugat.bmp	 13	 16	 0	 u	 1	 0	 1213.15	 6.20	 6.07	 
BSOV_122	 0	 2	 01	 1	 45	 2.280221e+02	 KashitSour.bmp	 Popco.bmp	 50	 48	 0	 x	 2	 999	 999000.00	 1.27	 1.87	 
BSOV_122	 0	 2	 01	 1	 46	 2.310255e+02	 Hit.bmp	 Twix.bmp	 8	 18	 1	 i	 1	 0	 764.80	 7.67	 5.91	 
BSOV_122	 0	 2	 01	 1	 47	 2.360311e+02	 ClickXLwhite4.bmp	 BambaNugat.bmp	 15	 16	 0	 i	 1	 1	 839.19	 6.13	 6.07	 
BSOV_122	 0	 2	 01	 1	 48	 2.390344e+02	 KifkefMaklot2.bmp	 ClickXLwhite4.bmp	 14	 15	 1	 i	 1	 0	 891.83	 6.16	 6.13	 
BSOV_122	 0	 2	 01	 1	 49	 2.480279e+02	 SkittlesSour4.bmp	 Popco.bmp	 52	 48	 0	 u	 2	 0	 1362.34	 1.16	 1.87	 
BSOV_122	 0	 2	 01	 1	 50	 2.520324e+02	 Popco.bmp	 Keifli.bmp	 48	 44	 1	 i	 2	 0	 1197.89	 1.87	 3.09	 
BSOV_122	 0	 2	 01	 1	 51	 2.590236e+02	 Mentos.bmp	 Keifli.bmp	 49	 44	 1	 u	 2	 1	 838.72	 1.42	 3.09	 
BSOV_122	 0	 2	 01	 1	 52	 2.680337e+02	 KinderJoy.bmp	 Bounty.bmp	 46	 47	 1	 u	 2	 1	 836.57	 2.87	 2.40	 
BSOV_122	 0	 2	 01	 1	 53	 2.720215e+02	 ClickBlackWhite3.bmp	 Twix.bmp	 11	 18	 1	 i	 1	 0	 1032.71	 6.69	 5.91	 
BSOV_122	 0	 2	 01	 1	 54	 2.760259e+02	 ClickXLwhite4.bmp	 DoritosNatural.bmp	 15	 17	 0	 u	 1	 0	 804.35	 6.13	 6.07	 
BSOV_122	 0	 2	 01	 1	 55	 2.790294e+02	 DoritosNatural.bmp	 Kitkat.bmp	 17	 7	 1	 i	 1	 0	 712.89	 6.07	 7.73	 
BSOV_122	 0	 2	 01	 1	 56	 2.880228e+02	 CrunchShokoVanil.bmp	 KashitSour.bmp	 43	 50	 1	 u	 2	 1	 903.44	 3.24	 1.27	 
BSOV_122	 0	 2	 01	 1	 57	 2.960318e+02	 ClickBalls5.bmp	 KifkefMaklot2.bmp	 13	 14	 0	 u	 1	 0	 1238.46	 6.20	 6.16	 
BSOV_122	 0	 2	 01	 1	 58	 3.040241e+02	 Kitkat.bmp	 Hit.bmp	 7	 8	 0	 i	 1	 1	 1014.20	 7.73	 7.67	 
BSOV_122	 0	 2	 01	 1	 59	 3.070275e+02	 CrunchBisquitBrown3.bmp	 ClickXLwhite4.bmp	 9	 15	 1	 i	 1	 0	 946.78	 7.60	 6.13	 
BSOV_122	 0	 2	 01	 1	 60	 3.110319e+02	 Popco.bmp	 Snickers.bmp	 48	 45	 1	 i	 2	 0	 1046.38	 1.87	 3.04	 
BSOV_122	 0	 2	 01	 1	 61	 3.150199e+02	 Keifli.bmp	 BambaSweet.bmp	 44	 54	 0	 u	 2	 0	 874.34	 3.09	 0.96	 
BSOV_122	 0	 2	 01	 1	 62	 3.180231e+02	 ClickBlackWhite3.bmp	 ClickXLwhite4.bmp	 11	 15	 1	 i	 1	 0	 735.18	 6.69	 6.13	 
BSOV_122	 0	 2	 01	 1	 63	 3.220275e+02	 GumiSnakes3.bmp	 CrunchBisquitWhite2.bmp	 55	 6	 0	 i	 4	 1	 874.73	 0.96	 7.80	 
BSOV_122	 0	 2	 01	 1	 64	 3.260321e+02	 Bounty.bmp	 Mentos.bmp	 47	 49	 0	 u	 2	 0	 1070.13	 2.40	 1.42	 
BSOV_122	 0	 2	 01	 1	 65	 3.310211e+02	 BabyDoll.bmp	 WerthersOriginal.bmp	 51	 53	 1	 u	 2	 1	 865.16	 1.27	 1.00	 
BSOV_122	 0	 2	 01	 1	 66	 3.340243e+02	 ClickXLbrown4.bmp	 CrunchBisquitBrown3.bmp	 10	 9	 0	 i	 1	 1	 885.95	 7.31	 7.60	 
BSOV_122	 0	 2	 01	 1	 67	 3.420334e+02	 BisliOnion.bmp	 KifkefMaklot2.bmp	 12	 14	 0	 u	 1	 0	 1148.83	 6.27	 6.16	 
BSOV_122	 0	 2	 01	 1	 68	 3.450202e+02	 ClickBlackWhite3.bmp	 ClickXLbrown4.bmp	 11	 10	 1	 u	 1	 1	 1234.06	 6.69	 7.31	 
BSOV_122	 0	 2	 01	 1	 69	 3.500257e+02	 Mentos.bmp	 Snickers.bmp	 49	 45	 1	 u	 2	 1	 956.61	 1.42	 3.04	 
BSOV_122	 0	 2	 01	 1	 70	 3.550312e+02	 Hit.bmp	 BisliOnion.bmp	 8	 12	 1	 u	 1	 1	 759.05	 7.67	 6.27	 
BSOV_122	 0	 2	 01	 1	 71	 3.580346e+02	 KinderJoy.bmp	 SkittlesSour4.bmp	 46	 52	 1	 u	 2	 1	 707.68	 2.87	 1.16	 
BSOV_122	 0	 2	 01	 1	 72	 3.610214e+02	 BambaSweet.bmp	 WerthersOriginal.bmp	 54	 53	 1	 i	 2	 0	 752.90	 0.96	 1.00	 
BSOV_122	 0	 2	 01	 1	 73	 3.640247e+02	 DoritosNatural.bmp	 ClickXLbrown4.bmp	 17	 10	 1	 i	 1	 0	 677.61	 6.07	 7.31	 
BSOV_122	 0	 2	 01	 1	 74	 3.690303e+02	 CrunchShokoVanil.bmp	 SkittlesSour4.bmp	 43	 52	 1	 u	 2	 1	 799.95	 3.24	 1.16	 
BSOV_122	 0	 2	 01	 1	 75	 3.730348e+02	 DoritosNatural.bmp	 BisliOnion.bmp	 17	 12	 1	 i	 1	 0	 955.44	 6.07	 6.27	 
BSOV_122	 0	 2	 01	 1	 76	 3.780237e+02	 CrunchBisquitBrown3.bmp	 BisliOnion.bmp	 9	 12	 1	 u	 1	 1	 1030.53	 7.60	 6.27	 
