subjectID	scanner	order	block	run	trial	onsettime	ImageLeft	ImageRight	bidIndexLeft	bidIndexRight	IsleftGo	Response	PairType	Outcome	RT	bidLeft	bidRight	
BSOV_105	 0	 1	 02	 1	 1	 2.018814e+00	 ClickXLbrown4.bmp	 CrunchBisquitWhite2.bmp	 14	 10	 0	 i	 1	 1	 821.44	 7.56	 8.02	 
BSOV_105	 0	 1	 02	 1	 2	 1.002779e+01	 ChocolateParaMilk3.bmp	 Mekupelet.bmp	 45	 48	 1	 u	 2	 1	 692.48	 4.89	 3.78	 
BSOV_105	 0	 1	 02	 1	 3	 1.403234e+01	 Tortit.bmp	 Mekupelet.bmp	 44	 48	 1	 u	 2	 1	 855.92	 4.91	 3.78	 
BSOV_105	 0	 1	 02	 1	 4	 1.902122e+01	 Mekupelet.bmp	 Twist.bmp	 48	 52	 0	 u	 2	 0	 891.03	 3.78	 1.11	 
BSOV_105	 0	 1	 02	 1	 5	 2.803131e+01	 Tortit.bmp	 Tictac.bmp	 44	 49	 1	 u	 2	 1	 688.95	 4.91	 2.71	 
BSOV_105	 0	 1	 02	 1	 6	 3.302024e+01	 ClickBisquit2.bmp	 Bamba.bmp	 18	 16	 1	 i	 1	 0	 996.02	 7.09	 7.53	 
BSOV_105	 0	 1	 02	 1	 7	 3.602362e+01	 HispusimShatiah.bmp	 Twist.bmp	 43	 52	 0	 u	 2	 0	 1096.64	 5.33	 1.11	 
BSOV_105	 0	 1	 02	 1	 8	 4.002815e+01	 ClickBisquit2.bmp	 ClickXLbrown4.bmp	 18	 14	 1	 i	 1	 0	 916.10	 7.09	 7.56	 
BSOV_105	 0	 1	 02	 1	 9	 4.403268e+01	 KinderBuenoBrown3.bmp	 Snickers.bmp	 13	 11	 1	 u	 1	 1	 815.58	 7.60	 8.02	 
BSOV_105	 0	 1	 02	 1	 10	 4.701932e+01	 BambaNugat.bmp	 CrunchBisquitWhite2.bmp	 17	 10	 0	 i	 1	 1	 908.93	 7.49	 8.02	 
BSOV_105	 0	 1	 02	 1	 11	 5.202492e+01	 Tapuchips.bmp	 Bamba.bmp	 12	 16	 1	 u	 1	 1	 767.34	 7.98	 7.53	 
BSOV_105	 0	 1	 02	 1	 12	 5.903278e+01	 Mekupelet.bmp	 HappyHippo.bmp	 48	 47	 0	 u	 2	 0	 999.48	 3.78	 4.82	 
BSOV_105	 0	 1	 02	 1	 13	 6.702508e+01	 BambaNugat.bmp	 KifkefMaklot2.bmp	 17	 7	 0	 u	 1	 0	 1223.21	 7.49	 8.07	 
BSOV_105	 0	 1	 02	 1	 14	 7.002848e+01	 Bamba.bmp	 KifkefMaklot2.bmp	 16	 7	 0	 i	 1	 1	 1323.75	 7.53	 8.07	 
BSOV_105	 0	 1	 02	 1	 15	 7.501757e+01	 BisliPizza3.bmp	 GumiSnakes3.bmp	 50	 46	 1	 i	 2	 0	 998.72	 2.20	 4.84	 
BSOV_105	 0	 1	 02	 1	 16	 8.402752e+01	 BabyDoll.bmp	 HappyHippo.bmp	 51	 47	 0	 i	 2	 1	 1204.75	 1.62	 4.82	 
BSOV_105	 0	 1	 02	 1	 17	 8.901613e+01	 BambaSweet.bmp	 Bamba.bmp	 15	 16	 1	 u	 1	 1	 1064.13	 7.56	 7.53	 
BSOV_105	 0	 1	 02	 1	 18	 9.201983e+01	 KinderBuenoWhite2.bmp	 BisliGrill.bmp	 6	 56	 1	 u	 4	 1	 820.43	 8.07	 0.58	 
BSOV_105	 0	 1	 02	 1	 19	 9.602428e+01	 HispusimShatiah.bmp	 Tortit.bmp	 43	 44	 0	 i	 2	 1	 943.98	 5.33	 4.91	 
BSOV_105	 0	 1	 02	 1	 20	 9.902771e+01	 Tortit.bmp	 GumiSnakes3.bmp	 44	 46	 1	 i	 2	 0	 1084.55	 4.91	 4.84	 
BSOV_105	 0	 1	 02	 1	 21	 1.100234e+02	 KinderBuenoBrown3.bmp	 BambaNugat.bmp	 13	 17	 1	 u	 1	 1	 736.83	 7.60	 7.49	 
BSOV_105	 0	 1	 02	 1	 22	 1.170312e+02	 Mentos.bmp	 HappyHippo.bmp	 54	 47	 0	 i	 2	 1	 993.10	 0.60	 4.82	 
BSOV_105	 0	 1	 02	 1	 23	 1.200179e+02	 Taami.bmp	 KifkefMaklot2.bmp	 8	 7	 0	 i	 1	 1	 1046.39	 8.04	 8.07	 
BSOV_105	 0	 1	 02	 1	 24	 1.300292e+02	 HispusimShatiah.bmp	 ChocolateParaMilk3.bmp	 43	 45	 0	 u	 2	 0	 1139.10	 5.33	 4.89	 
BSOV_105	 0	 1	 02	 1	 25	 1.330324e+02	 BisliPizza3.bmp	 HispusimShatiah.bmp	 50	 43	 1	 x	 2	 999	 999000.00	 2.20	 5.33	 
BSOV_105	 0	 1	 02	 1	 26	 1.380215e+02	 Egozi.bmp	 KinderBuenoBrown3.bmp	 9	 13	 0	 i	 1	 1	 802.81	 8.02	 7.60	 
BSOV_105	 0	 1	 02	 1	 27	 1.460304e+02	 BambaSweet.bmp	 Snickers.bmp	 15	 11	 1	 u	 1	 1	 1193.81	 7.56	 8.02	 
BSOV_105	 0	 1	 02	 1	 28	 1.560249e+02	 Taami.bmp	 ClickBisquit2.bmp	 8	 18	 0	 i	 1	 1	 839.33	 8.04	 7.09	 
BSOV_105	 0	 1	 02	 1	 29	 1.650184e+02	 CrunchBisquitWhite2.bmp	 Taami.bmp	 10	 8	 1	 u	 1	 1	 765.81	 8.02	 8.04	 
BSOV_105	 0	 1	 02	 1	 30	 1.680217e+02	 Snickers.bmp	 Tapuchips.bmp	 11	 12	 0	 i	 1	 1	 914.55	 8.02	 7.98	 
BSOV_105	 0	 1	 02	 1	 31	 1.720263e+02	 HappyHippo.bmp	 Tictac.bmp	 47	 49	 1	 u	 2	 1	 822.00	 4.82	 2.71	 
BSOV_105	 0	 1	 02	 1	 32	 1.750296e+02	 Snickers.bmp	 CrunchBisquitWhite2.bmp	 11	 10	 0	 i	 1	 1	 666.65	 8.02	 8.02	 
BSOV_105	 0	 1	 02	 1	 33	 1.780160e+02	 BabyDoll.bmp	 Twist.bmp	 51	 52	 0	 u	 2	 0	 888.22	 1.62	 1.11	 
BSOV_105	 0	 1	 02	 1	 34	 1.820208e+02	 Bamba.bmp	 KinderBuenoBrown3.bmp	 16	 13	 0	 i	 1	 1	 907.49	 7.53	 7.60	 
BSOV_105	 0	 1	 02	 1	 35	 1.920320e+02	 KinderBuenoBrown3.bmp	 Taami.bmp	 13	 8	 1	 u	 1	 1	 856.23	 7.60	 8.04	 
BSOV_105	 0	 1	 02	 1	 36	 2.030277e+02	 Egozi.bmp	 ClickBisquit2.bmp	 9	 18	 0	 i	 1	 1	 892.53	 8.02	 7.09	 
BSOV_105	 0	 1	 02	 1	 37	 2.060310e+02	 Snickers.bmp	 ClickBisquit2.bmp	 11	 18	 0	 i	 1	 1	 1049.22	 8.02	 7.09	 
BSOV_105	 0	 1	 02	 1	 38	 2.090178e+02	 GumiSnakes3.bmp	 HappyHippo.bmp	 46	 47	 0	 u	 2	 0	 982.48	 4.84	 4.82	 
BSOV_105	 0	 1	 02	 1	 39	 2.120211e+02	 Taami.bmp	 BambaSweet.bmp	 8	 15	 0	 i	 1	 1	 811.13	 8.04	 7.56	 
BSOV_105	 0	 1	 02	 1	 40	 2.180279e+02	 WerthersOriginal.bmp	 Mekupelet.bmp	 53	 48	 1	 u	 2	 1	 1068.35	 0.69	 3.78	 
BSOV_105	 0	 1	 02	 1	 41	 2.210312e+02	 KifkefMaklot2.bmp	 Snickers.bmp	 7	 11	 1	 u	 1	 1	 1049.04	 8.07	 8.02	 
BSOV_105	 0	 1	 02	 1	 42	 2.250191e+02	 Twist.bmp	 Tictac.bmp	 52	 49	 1	 i	 2	 0	 1141.15	 1.11	 2.71	 
BSOV_105	 0	 1	 02	 1	 43	 2.300247e+02	 Bounty.bmp	 CrunchShokoVanil.bmp	 5	 55	 1	 u	 4	 1	 1095.57	 8.51	 0.60	 
BSOV_105	 0	 1	 02	 1	 44	 2.370325e+02	 WerthersOriginal.bmp	 BabyDoll.bmp	 53	 51	 1	 i	 2	 0	 855.78	 0.69	 1.62	 
BSOV_105	 0	 1	 02	 1	 45	 2.400192e+02	 BisliPizza3.bmp	 BabyDoll.bmp	 50	 51	 1	 u	 2	 1	 853.10	 2.20	 1.62	 
BSOV_105	 0	 1	 02	 1	 46	 2.430227e+02	 ChocolateParaMilk3.bmp	 BabyDoll.bmp	 45	 51	 1	 u	 2	 1	 825.60	 4.89	 1.62	 
BSOV_105	 0	 1	 02	 1	 47	 2.460260e+02	 BisliPizza3.bmp	 Tictac.bmp	 50	 49	 1	 u	 2	 1	 822.26	 2.20	 2.71	 
BSOV_105	 0	 1	 02	 1	 48	 2.530172e+02	 WerthersOriginal.bmp	 Mentos.bmp	 53	 54	 1	 i	 2	 0	 1047.10	 0.69	 0.60	 
BSOV_105	 0	 1	 02	 1	 49	 2.560205e+02	 Tictac.bmp	 WerthersOriginal.bmp	 49	 53	 0	 u	 2	 0	 1155.73	 2.71	 0.69	 
BSOV_105	 0	 1	 02	 1	 50	 2.590239e+02	 Tortit.bmp	 Mentos.bmp	 44	 54	 1	 u	 2	 1	 928.35	 4.91	 0.60	 
BSOV_105	 0	 1	 02	 1	 51	 2.620272e+02	 ClickXLbrown4.bmp	 KinderBuenoBrown3.bmp	 14	 13	 0	 u	 1	 0	 1029.07	 7.56	 7.60	 
BSOV_105	 0	 1	 02	 1	 52	 2.650306e+02	 Tictac.bmp	 ChocolateParaMilk3.bmp	 49	 45	 0	 i	 2	 1	 705.70	 2.71	 4.89	 
BSOV_105	 0	 1	 02	 1	 53	 2.730229e+02	 KifkefMaklot2.bmp	 ClickXLbrown4.bmp	 7	 14	 1	 i	 1	 0	 1025.39	 8.07	 7.56	 
BSOV_105	 0	 1	 02	 1	 54	 2.790296e+02	 GumiSnakes3.bmp	 WerthersOriginal.bmp	 46	 53	 0	 u	 2	 0	 762.64	 4.84	 0.69	 
BSOV_105	 0	 1	 02	 1	 55	 2.820162e+02	 Twist.bmp	 Mentos.bmp	 52	 54	 1	 u	 2	 1	 1456.03	 1.11	 0.60	 
BSOV_105	 0	 1	 02	 1	 56	 2.860209e+02	 Egozi.bmp	 Tapuchips.bmp	 9	 12	 0	 i	 1	 1	 947.39	 8.02	 7.98	 
BSOV_105	 0	 1	 02	 1	 57	 2.890243e+02	 Egozi.bmp	 BambaSweet.bmp	 9	 15	 0	 i	 1	 1	 728.01	 8.02	 7.56	 
BSOV_105	 0	 1	 02	 1	 58	 2.950309e+02	 Tapuchips.bmp	 ClickXLbrown4.bmp	 12	 14	 1	 i	 1	 0	 977.38	 7.98	 7.56	 
BSOV_105	 0	 1	 02	 1	 59	 2.980177e+02	 GumiSnakes3.bmp	 Twist.bmp	 46	 52	 0	 u	 2	 0	 918.58	 4.84	 1.11	 
BSOV_105	 0	 1	 02	 1	 60	 3.040244e+02	 KifkefMaklot2.bmp	 Egozi.bmp	 7	 9	 1	 u	 1	 1	 791.90	 8.07	 8.02	 
BSOV_105	 0	 1	 02	 1	 61	 3.130177e+02	 BabyDoll.bmp	 Tortit.bmp	 51	 44	 0	 i	 2	 1	 982.51	 1.62	 4.91	 
BSOV_105	 0	 1	 02	 1	 62	 3.160211e+02	 Bounty.bmp	 BisliGrill.bmp	 5	 56	 1	 u	 4	 1	 755.16	 8.51	 0.58	 
BSOV_105	 0	 1	 02	 1	 63	 3.190246e+02	 HispusimShatiah.bmp	 WerthersOriginal.bmp	 43	 53	 0	 u	 2	 0	 951.68	 5.33	 0.69	 
BSOV_105	 0	 1	 02	 1	 64	 3.250313e+02	 GumiSnakes3.bmp	 ChocolateParaMilk3.bmp	 46	 45	 0	 u	 2	 0	 920.97	 4.84	 4.89	 
BSOV_105	 0	 1	 02	 1	 65	 3.300202e+02	 CrunchShokoVanil.bmp	 KinderBuenoWhite2.bmp	 55	 6	 0	 i	 4	 1	 820.08	 0.60	 8.07	 
BSOV_105	 0	 1	 02	 1	 66	 3.330236e+02	 HispusimShatiah.bmp	 HappyHippo.bmp	 43	 47	 0	 u	 2	 0	 936.64	 5.33	 4.82	 
BSOV_105	 0	 1	 02	 1	 67	 3.390303e+02	 Tapuchips.bmp	 Taami.bmp	 12	 8	 1	 u	 1	 1	 825.99	 7.98	 8.04	 
BSOV_105	 0	 1	 02	 1	 68	 3.420166e+02	 BambaNugat.bmp	 Tapuchips.bmp	 17	 12	 0	 i	 1	 1	 1079.71	 7.49	 7.98	 
BSOV_105	 0	 1	 02	 1	 69	 3.450204e+02	 BisliPizza3.bmp	 Mentos.bmp	 50	 54	 1	 u	 2	 1	 691.84	 2.20	 0.60	 
BSOV_105	 0	 1	 02	 1	 70	 3.490248e+02	 BambaSweet.bmp	 BambaNugat.bmp	 15	 17	 1	 u	 1	 1	 1047.43	 7.56	 7.49	 
BSOV_105	 0	 1	 02	 1	 71	 3.530294e+02	 Mekupelet.bmp	 BisliPizza3.bmp	 48	 50	 0	 i	 2	 1	 826.84	 3.78	 2.20	 
BSOV_105	 0	 1	 02	 1	 72	 3.580182e+02	 ClickBisquit2.bmp	 BambaNugat.bmp	 18	 17	 1	 u	 1	 1	 726.05	 7.09	 7.49	 
BSOV_105	 0	 1	 02	 1	 73	 3.650261e+02	 CrunchBisquitWhite2.bmp	 Egozi.bmp	 10	 9	 1	 u	 1	 1	 822.17	 8.02	 8.02	 
BSOV_105	 0	 1	 02	 1	 74	 3.710329e+02	 Bamba.bmp	 CrunchBisquitWhite2.bmp	 16	 10	 0	 i	 1	 1	 631.33	 7.53	 8.02	 
BSOV_105	 0	 1	 02	 1	 75	 3.750206e+02	 ChocolateParaMilk3.bmp	 Mentos.bmp	 45	 54	 1	 u	 2	 1	 739.62	 4.89	 0.60	 
BSOV_105	 0	 1	 02	 1	 76	 3.780240e+02	 ClickXLbrown4.bmp	 BambaSweet.bmp	 14	 15	 0	 u	 1	 0	 904.23	 7.56	 7.56	 
