subjectID	scanner	order	block	run	trial	onsettime	ImageLeft	ImageRight	bidIndexLeft	bidIndexRight	IsleftGo	Response	PairType	Outcome	RT	bidLeft	bidRight	FixationTime	Contingency	PlannedOnset	onset	duration
BM_102	0	2	1	1	1	4.00474519096315	1262.jpg	1019.jpg	9	11	0	i	1	1	752.506960881874	0.800094	0.7933698	4.77133611077443	1	4	4.00474519096315	0.766590919811279
BM_102	0	2	1	1	2	11.1953740059398	1007.jpg	2094.jpg	40	38	1	u	4	1	849.895777879283	0.4931262	0.5170672	12.0624712838326	1	11.2	11.1953740059398	0.867097277892753
BM_102	0	2	1	1	3	15.8003178578801	1210.jpg	1115.jpg	19	21	0	i	2	1	780.943315010518	0.7003207	0.6893962	16.6015533888713	0.5	15.8	15.8003178578801	0.801235530991107
BM_102	0	2	1	1	4	19.1045168437995	1073.jpg	2153.jpg	14	16	1	u	1	1	788.737402064726	0.7404616	0.7190495	19.905624285806	1	19.1	19.1045168437995	0.801107442006469
BM_102	0	2	1	1	5	24.8106388719752	1017.jpg	2212.jpg	32	25	1	u	3	1	810.627105878666	0.5551454	0.6071181	25.6273049127776	0.5	24.8	24.8106388719752	0.816666040802374
BM_102	0	2	1	1	6	27.7979991699103	2201.jpg	1220.jpg	52	51	1	u	6	1	935.262154089287	0.4217941	0.4226414	28.7480773618445	1	27.8	27.7979991699103	0.950078191934153
BM_102	0	2	1	1	7	31.1011484188493	1144.jpg	1192.jpg	47	41	1	i	5	0	1080.108365044	0.4338517	0.4759987	32.2026790988166	0.5	31.1	31.1011484188493	1.10153067996725
BM_102	0	2	1	1	8	35.4057431078982	2194.jpg	2155.jpg	54	53	1	u	6	1	687.521928921342	0.3993698	0.4160078	36.1072170308325	1	35.4	35.4057431078982	0.701473922934383
BM_102	0	2	1	1	9	38.7099034278654	1262.jpg	2154.jpg	9	15	0	i	1	1	903.352007037029	0.800094	0.7392127	39.6268998519517	1	38.7	38.7099034278654	0.916996424086392
BM_102	0	2	1	1	10	42.2968167159706	2016.jpg	2221.jpg	34	39	1	u	4	1	932.438023854047	0.5456148	0.5024973	43.24771077279	1	42.3	42.2968167159706	0.950894056819379
BM_102	0	2	1	1	11	53.3095126198605	2155.jpg	2201.jpg	53	52	0	i	6	1	1071.73862005584	0.4160078	0.4217941	54.3943620608188	1	53.3	53.3095126198605	1.08484944095835
BM_102	0	2	1	1	12	56.8971735779196	2240.jpg	2094.jpg	35	38	1	u	4	1	996.089423075318	0.5427088	0.5170672	57.9148142877966	1	56.9	56.8971735779196	1.01764070987701
BM_102	0	2	1	1	13	62.302514500916	2043.jpg	1060.jpg	69	65	1	i	8	0	1094.73980707116	0.2270374	0.2892688	63.4202486339491	0.5	62.3	62.302514500916	1.11773413303308
BM_102	0	2	1	1	14	67.0078022009693	1057.jpg	2128.jpg	64	59	0	i	7	1	861.453133868054	0.2978265	0.3387474	67.8923883398529	1	67	67.0078022009693	0.884586138883606
BM_102	0	2	1	1	15	70.111533468822	1182.jpg	2118.jpg	22	24	0	i	2	1	781.738955993205	0.6438978	0.6204537	70.9117579360027	0.5	70.1	70.111533468822	0.800224467180669
BM_102	0	2	1	1	16	75.7014082469977	2039.jpg	2229.jpg	56	55	0	i	6	1	1023.84638693184	0.3913198	0.3919465	76.7369818578009	1	75.7	75.7014082469977	1.03557361080311
BM_102	0	2	1	1	17	78.7049036889803	2149.jpg	1060.jpg	67	65	1	i	8	0	908.357815816998	0.2653814	0.2892688	79.6227476249915	0.5	78.7	78.7049036889803	0.917843936011195
BM_102	0	2	1	1	18	85.2954151458107	1191.jpg	1052.jpg	31	27	0	u	3	0	1341.83966205455	0.562526	0.585723	86.6470750879962	0.5	85.3	85.2954151458107	1.35165994218551
BM_102	0	2	1	1	19	90.8016775159631	2209.jpg	1052.jpg	30	27	0	u	3	0	731.574160978198	0.5683832	0.585723	91.5527833199594	0.5	90.8	90.8016775159631	0.751105803996325
BM_102	0	2	1	1	20	95.6066352878697	1057.jpg	2045.jpg	64	63	0	i	7	1	774.616283131763	0.2978265	0.3128786	96.3928483698983	1	95.6	95.6066352878697	0.786213082028553
BM_102	0	2	1	1	21	100.195505418815	2217.jpg	1127.jpg	62	60	1	u	7	1	809.749220032245	0.3159781	0.3367295	101.015281241853	1	100.2	100.195505418815	0.819775823038071
BM_102	0	2	1	1	22	104.80034678895	2125.jpg	1073.jpg	13	14	0	i	1	1	740.905017824844	0.7482539	0.7404616	105.552351448918	1	104.8	104.80034678895	0.752004659967497
BM_102	0	2	1	1	23	108.604506644886	2248.jpg	2209.jpg	26	30	1	i	3	0	968.763588927686	0.5870975	0.5683832	109.58934816788	0.5	108.6	108.604506644886	0.98484152299352
BM_102	0	2	1	1	24	113.11044554878	2181.jpg	2089.jpg	37	33	1	u	4	1	990.814094198868	0.5358818	0.5506366	114.111312291818	1	113.1	113.11044554878	1.00086674303748
BM_102	0	2	1	1	25	121.20242440491	2221.jpg	1007.jpg	39	40	0	i	4	1	930.830490076914	0.5024973	0.4931262	122.153714416781	1	121.2	121.20242440491	0.951290011871606
BM_102	0	2	1	1	26	124.906419898849	2045.jpg	1013.jpg	63	57	1	u	7	1	1418.84907800704	0.3128786	0.371548	126.341132869944	1	124.9	124.906419898849	1.434712971095
BM_102	0	2	1	1	27	129.010812614812	2110.jpg	2043.jpg	68	69	0	i	8	1	778.443273156881	0.2375996	0.2270374	129.812385231955	0.5	129	129.010812614812	0.801572617143393
BM_102	0	2	1	1	28	133.599254969973	2045.jpg	1127.jpg	63	60	1	u	7	1	1030.00919893384	0.3128786	0.3367295	134.650944344001	1	133.6	133.599254969973	1.05168937402777
BM_102	0	2	1	1	29	140.707862767857	1114.jpg	1115.jpg	18	21	0	u	2	0	769.392167916521	0.7024003	0.6893962	141.490999428788	0.5	140.7	140.707862767857	0.783136660931632
BM_102	0	2	1	1	30	144.411541560898	1255.jpg	2063.jpg	23	20	0	i	2	1	1169.71303592436	0.6354283	0.6901709	145.596404200885	0.5	144.4	144.411541560898	1.18486263998784
BM_102	0	2	1	1	31	150.501638329821	1226.jpg	2112.jpg	43	48	1	u	5	1	887.616153107956	0.4504471	0.4293825	151.402217922965	0.5	150.5	150.501638329821	0.900579593144357
BM_102	0	2	1	1	32	154.005513959797	1220.jpg	2229.jpg	51	55	0	i	6	1	927.741053979844	0.4226414	0.3919465	154.944446050795	1	154	154.005513959797	0.938932090997696
BM_102	0	2	1	1	33	157.209589798935	1207.jpg	1017.jpg	28	32	0	i	3	1	1027.66551892273	0.5817812	0.5551454	158.260680498788	0.5	157.2	157.209589798935	1.05109069985338
BM_102	0	2	1	1	34	160.195846499875	1019.jpg	2124.jpg	11	12	1	i	1	0	729.42473506555	0.7933698	0.7927174	160.946840537945	1	160.2	160.195846499875	0.750994038069621
BM_102	0	2	1	1	35	164.301313183969	2016.jpg	2089.jpg	34	33	1	u	4	1	1103.94202894531	0.5456148	0.5506366	165.417863329872	1	164.3	164.301313183969	1.1165501459036
BM_102	0	2	1	1	36	170.607563763857	2089.jpg	1007.jpg	33	40	0	u	4	0	877.686101943254	0.5506366	0.4931262	171.490914790891	1	170.6	170.607563763857	0.883351027034223
BM_102	0	2	1	1	37	173.611608942971	1173.jpg	1150.jpg	71	72	0	i	8	1	1457.6455890201	0.2144742	0.2060824	175.080569431884	0.5	173.6	173.611608942971	1.46896048891358
BM_102	0	2	1	1	38	177.398875500774	2111.jpg	2112.jpg	42	48	1	u	5	1	854.379686061293	0.4553012	0.4293825	178.265654961811	0.5	177.4	177.398875500774	0.866779461037368
BM_102	0	2	1	1	39	182.403913598973	1114.jpg	2041.jpg	18	17	0	i	2	1	1017.34837098047	0.7024003	0.7042455	183.438306849916	0.5	182.4	182.403913598973	1.03439325094223
BM_102	0	2	1	1	40	185.607788177906	1255.jpg	2118.jpg	23	24	0	i	2	1	1245.47740304843	0.6354283	0.6204537	186.876273800852	0.5	185.6	185.607788177906	1.26848562294617
BM_102	0	2	1	1	41	188.911447800929	2111.jpg	2218.jpg	42	44	1	u	5	1	909.804215887561	0.4553012	0.4502692	189.831398753915	0.5	188.9	188.911447800929	0.919950952986255
BM_102	0	2	1	1	42	192.298627699958	2054.jpg	1013.jpg	58	57	1	u	7	1	1466.62303688936	0.3572637	0.371548	193.783657590859	1	192.3	192.298627699958	1.48502989090048
BM_102	0	2	1	1	43	197.404847796774	2209.jpg	1017.jpg	30	32	0	u	3	0	896.403721999377	0.5683832	0.5551454	198.322136393981	0.5	197.4	197.404847796774	0.917288597207516
BM_102	0	2	1	1	44	201.509056024952	1226.jpg	2218.jpg	43	44	1	u	5	1	880.198404891416	0.4504471	0.4502692	202.410237240838	0.5	201.5	201.509056024952	0.901181215886027
BM_102	0	2	1	1	45	205.296753859846	2249.jpg	2217.jpg	61	62	0	u	7	0	1284.50195514597	0.3221623	0.3159781	206.598331058864	1	205.3	205.296753859846	1.30157719901763
BM_102	0	2	1	1	46	209.701431593858	1202.jpg	2153.jpg	10	16	1	u	1	1	967.823205981404	0.7938321	0.7190495	210.685542089865	1	209.7	209.701431593858	0.984110496006906
BM_102	0	2	1	1	47	213.906408665935	1115.jpg	1255.jpg	21	23	1	u	2	1	874.856509966776	0.6893962	0.6354283	214.790859177941	0.5	213.9	213.906408665935	0.884450512006879
BM_102	0	2	1	1	48	222.300696888939	1027.jpg	1144.jpg	45	47	0	i	5	1	1216.55918494798	0.443137	0.4338517	223.533408934949	0.5	222.3	222.300696888939	1.23271204601042
BM_102	0	2	1	1	49	226.503552542999	1255.jpg	2041.jpg	23	17	0	i	2	1	709.698920836672	0.6354283	0.7042455	227.224617503816	0.5	226.5	226.503552542999	0.721064960816875
BM_102	0	2	1	1	50	230.207700490952	1127.jpg	2054.jpg	60	58	0	i	7	1	837.574064033106	0.3367295	0.3572637	231.058863551822	1	230.2	230.207700490952	0.851163060870022
BM_102	0	2	1	1	51	233.411852881778	2110.jpg	1130.jpg	68	66	0	i	8	1	1073.4128691256	0.2375996	0.2705922	234.496795477811	0.5	233.4	233.411852881778	1.08494259603322
BM_102	0	2	1	1	52	236.498058373807	2248.jpg	2212.jpg	26	25	1	u	3	1	1259.19671310112	0.5870975	0.6071181	237.766786001856	0.5	236.5	236.498058373807	1.26872762804851
BM_102	0	2	1	1	53	241.203400082886	2043.jpg	1173.jpg	69	71	1	i	8	0	633.868612116203	0.2270374	0.2144742	241.853646543808	0.5	241.2	241.203400082886	0.650246460922062
BM_102	0	2	1	1	54	244.206708482001	1007.jpg	1146.jpg	40	36	1	u	4	1	1102.54183388315	0.4931262	0.5417233	245.324871118879	1	244.2	244.206708482001	1.11816263687797
BM_102	0	2	1	1	55	253.500917769969	1017.jpg	1191.jpg	32	31	1	u	3	1	1328.34716700017	0.5551454	0.562526	254.852542936802	0.5	253.5	253.500917769969	1.3516251668334
BM_102	0	2	1	1	56	260.608602244873	1202.jpg	2125.jpg	10	13	1	i	1	0	1292.67075797543	0.7938321	0.7482539	261.913032696815	1	260.6	260.608602244873	1.30443045194261
BM_102	0	2	1	1	57	271.403817179846	2153.jpg	2154.jpg	16	15	0	i	1	1	1225.4344120156	0.7190495	0.7392127	272.639003624907	1	271.4	271.403817179846	1.23518644506112
BM_102	0	2	1	1	58	278.595489962958	1150.jpg	1060.jpg	72	65	1	i	8	0	1225.76165595092	0.2060824	0.2892688	279.829688921804	0.5	278.6	278.595489962958	1.23419895884581
BM_102	0	2	1	1	59	282.900087721879	2024.jpg	1027.jpg	46	45	1	i	5	0	1209.16821598075	0.4382016	0.443137	284.121064157924	0.5	282.9	282.900087721879	1.22097643604502
BM_102	0	2	1	1	60	294.496636008844	2008.jpg	2155.jpg	49	53	1	u	6	1	884.6188520547	0.4283112	0.4160078	295.397428756813	1	294.5	294.496636008844	0.900792747968808
BM_102	0	2	1	1	61	302.705606182804	2043.jpg	2006.jpg	69	70	1	u	8	1	819.665614049882	0.2270374	0.2197375	303.540542463772	0.5	302.7	302.705606182804	0.834936280967668
BM_102	0	2	1	1	62	307.410816843854	2112.jpg	1144.jpg	48	47	0	i	5	1	1258.43909708783	0.4293825	0.4338517	308.680526487995	0.5	307.4	307.410816843854	1.26970964414068
BM_102	0	2	1	1	63	314.702251338866	2194.jpg	1145.jpg	54	50	1	u	6	1	1015.01522306353	0.3993698	0.4267485	315.737239589915	1	314.7	314.702251338866	1.03498825104907
BM_102	0	2	1	1	64	319.007605760824	1220.jpg	2008.jpg	51	49	0	i	6	1	957.650104071945	0.4226414	0.4283112	319.976859407965	1	319	319.007605760824	0.969253647141159
BM_102	0	2	2	1	65	321.994106465951	1019.jpg	2125.jpg	11	13	1	i	1	0	691.1615668796	0.7933698	0.7482539	322.696843062993	1	322	321.994106465951	0.702736597042531
BM_102	0	2	2	1	66	329.202399258967	2181.jpg	2094.jpg	37	38	1	u	4	1	818.879286991432	0.5358818	0.5170672	330.036083667772	1	329.2	329.202399258967	0.833684408804402
BM_102	0	2	2	1	67	333.807452002773	2063.jpg	1182.jpg	20	22	1	i	2	0	1021.7996921856	0.6901709	0.6438978	334.842333287932	0.5	333.8	333.807452002773	1.03488128515892
BM_102	0	2	2	1	68	337.11157446797	2124.jpg	1073.jpg	12	14	0	u	1	0	877.694699913263	0.7927174	0.7404616	338.012628547847	1	337.1	337.11157446797	0.901054079877213
BM_102	0	2	2	1	69	342.800557127921	1050.jpg	2212.jpg	29	25	1	u	3	1	1124.69828687608	0.5805628	0.6071181	343.936850273982	0.5	342.8	342.800557127921	1.13629314606078
BM_102	0	2	2	1	70	345.804646744858	2201.jpg	1145.jpg	52	50	1	u	6	1	736.604002071545	0.4217941	0.4267485	346.554396692896	1	345.8	345.804646744858	0.749749948037788
BM_102	0	2	2	1	71	349.10765894386	2024.jpg	2218.jpg	46	44	1	i	5	0	905.596666038036	0.4382016	0.4502692	350.025418201927	0.5	349.1	349.10765894386	0.917759258067235
BM_102	0	2	2	1	72	353.395672289887	2039.jpg	2194.jpg	56	54	0	i	6	1	929.579761112109	0.3913198	0.3993698	354.347485310864	1	353.4	353.395672289887	0.95181302097626
BM_102	0	2	2	1	73	356.69940595096	2154.jpg	2124.jpg	15	12	1	i	1	0	905.864755855873	0.7392127	0.7927174	357.616580777802	1	356.7	356.69940595096	0.917174826841801
BM_102	0	2	2	1	74	360.30365638691	2094.jpg	2016.jpg	38	34	0	i	4	1	941.610058071092	0.5170672	0.5456148	361.256999583915	1	360.3	360.30365638691	0.95334319700487
BM_102	0	2	2	1	75	371.299189765938	2201.jpg	2039.jpg	52	56	1	u	6	1	834.080192027614	0.4217941	0.3913198	372.150360545842	1	371.3	371.299189765938	0.851170779904351
BM_102	0	2	2	1	76	374.903480954934	2240.jpg	2089.jpg	35	33	1	u	4	1	894.076101947576	0.5427088	0.5506366	375.803518714849	1	374.9	374.903480954934	0.900037759914994
BM_102	0	2	2	1	77	380.309464810882	1173.jpg	1130.jpg	71	66	0	i	8	1	1063.79101192579	0.2144742	0.2705922	381.393554207869	0.5	380.3	380.309464810882	1.08408939698711
BM_102	0	2	2	1	78	384.997938314918	1013.jpg	2128.jpg	57	59	0	i	7	1	767.31761591509	0.371548	0.3387474	385.782337538898	1	385	384.997938314918	0.784399223979563
BM_102	0	2	2	1	79	388.101552262902	2118.jpg	1114.jpg	24	18	1	u	2	1	927.701727021486	0.6204537	0.7024003	389.035606786842	0.5	388.1	388.101552262902	0.934054523939267
BM_102	0	2	2	1	80	393.707776196999	2155.jpg	2229.jpg	53	55	0	i	6	1	969.475808786228	0.4160078	0.3919465	394.692208581837	1	393.7	393.707776196999	0.984432384837419
BM_102	0	2	2	1	81	396.711499028839	2006.jpg	1130.jpg	70	66	0	i	8	1	757.752489065751	0.2197375	0.2705922	397.480758960824	0.5	396.7	396.711499028839	0.769259931985289
BM_102	0	2	2	1	82	403.30189255299	1052.jpg	1207.jpg	27	28	1	i	3	0	1247.37895978615	0.585723	0.5817812	404.570352401817	0.5	403.3	403.30189255299	1.26845984882675
BM_102	0	2	2	1	83	408.80780123896	2212.jpg	1052.jpg	25	27	0	u	3	0	997.469892026857	0.6071181	0.585723	409.825512317941	0.5	408.8	408.80780123896	1.01771107898094
BM_102	0	2	2	1	84	413.596791790798	2249.jpg	2045.jpg	61	63	0	i	7	1	1160.47309711576	0.3221623	0.3128786	414.763485145988	1	413.6	413.596791790798	1.16669335518964
BM_102	0	2	2	1	85	418.202480834909	1127.jpg	2128.jpg	60	59	0	i	7	1	866.803776938468	0.3367295	0.3387474	419.086384034948	1	418.2	418.202480834909	0.88390320003964
BM_102	0	2	2	1	86	422.806921657873	1073.jpg	1262.jpg	14	9	1	u	1	1	662.329473998398	0.7404616	0.800094	423.491361884866	1	422.8	422.806921657873	0.684440226992592
BM_102	0	2	2	1	87	426.611626632977	2248.jpg	1191.jpg	26	31	1	u	3	1	1001.62817700766	0.5870975	0.562526	427.628594440874	0.5	426.6	426.611626632977	1.01696780789644
BM_102	0	2	2	1	88	431.099629062926	1146.jpg	2240.jpg	36	35	0	i	4	1	665.622913045809	0.5417233	0.5427088	431.783601718955	1	431.1	431.099629062926	0.683972656028345
BM_102	0	2	2	1	89	439.209018002963	2181.jpg	2221.jpg	37	39	1	u	4	1	884.233651915565	0.5358818	0.5024973	440.109338446986	1	439.2	439.209018002963	0.900320444023237
BM_102	0	2	2	1	90	442.896862280788	2217.jpg	1013.jpg	62	57	1	u	7	1	1028.38884200901	0.3159781	0.371548	443.947759207804	1	442.9	442.896862280788	1.05089692701586
BM_102	0	2	2	1	91	447.001296684844	2110.jpg	2149.jpg	68	67	0	i	8	1	979.958886047825	0.2375996	0.2653814	448.001531166956	0.5	447	447.001296684844	1.00023448211141
BM_102	0	2	2	1	92	451.606436154805	1057.jpg	2217.jpg	64	62	0	i	7	1	918.821020051837	0.2978265	0.3159781	452.540211792802	1	451.6	451.606436154805	0.933775637997314
BM_102	0	2	2	1	93	458.698016380891	1210.jpg	2063.jpg	19	20	0	i	2	1	843.246066011488	0.7003207	0.6901709	459.547405925812	0.5	458.7	458.698016380891	0.849389544920996
BM_102	0	2	2	1	94	462.401453610975	1114.jpg	2063.jpg	18	20	0	u	2	0	763.79780494608	0.7024003	0.6901709	463.1853032168	0.5	462.4	462.401453610975	0.783849605824798
BM_102	0	2	2	1	95	468.508569384925	1226.jpg	1027.jpg	43	45	1	u	5	1	1168.6863200739	0.4504471	0.443137	469.693394532893	0.5	468.5	468.508569384925	1.18482514796779
BM_102	0	2	2	1	96	471.995513770962	1145.jpg	2229.jpg	50	55	0	i	6	1	929.752759868279	0.4267485	0.3919465	472.946403569775	1	472	471.995513770962	0.950889798812568
BM_102	0	2	2	1	97	475.199596008984	1207.jpg	1050.jpg	28	29	0	i	3	1	853.6565778777	0.5817812	0.5805628	476.066551239928	0.5	475.2	475.199596008984	0.866955230943859
BM_102	0	2	2	1	98	478.204040953889	2153.jpg	1019.jpg	16	11	0	i	1	1	881.224031094462	0.7190495	0.7933698	479.103636940941	1	478.2	478.204040953889	0.899595987051725
BM_102	0	2	2	1	99	482.307424165774	1146.jpg	2016.jpg	36	34	0	i	4	1	865.842162165791	0.5417233	0.5456148	483.191189199919	1	482.3	482.307424165774	0.883765034144744
BM_102	0	2	2	1	100	488.597910669865	2221.jpg	2240.jpg	39	35	0	i	4	1	871.345412917435	0.5024973	0.5427088	489.481399974786	1	488.6	488.597910669865	0.883489304920658
BM_102	0	2	2	1	101	491.601319910958	2006.jpg	1150.jpg	70	72	0	i	8	1	1307.94960982166	0.2197375	0.2060824	492.920937313931	0.5	491.6	491.601319910958	1.31961740297265
BM_102	0	2	2	1	102	495.40544587397	2111.jpg	1027.jpg	42	45	1	u	5	1	871.811538934708	0.4553012	0.443137	496.288974742871	0.5	495.4	495.40544587397	0.883528868900612
BM_102	0	2	2	1	103	500.410654883832	1210.jpg	2041.jpg	19	17	0	i	2	1	650.60028899461	0.7003207	0.7042455	501.077938725939	0.5	500.4	500.410654883832	0.667283842107281
BM_102	0	2	2	1	104	503.597996401833	2118.jpg	1210.jpg	24	19	1	u	2	1	919.29631610401	0.6204537	0.7003207	504.531902394956	0.5	503.6	503.597996401833	0.933905993122607
BM_102	0	2	2	1	105	506.901214083889	1192.jpg	2111.jpg	41	42	0	i	5	1	1008.03755410016	0.4759987	0.4553012	507.920797636965	0.5	506.9	506.901214083889	1.01958355307579
BM_102	0	2	2	1	106	510.305438848911	2249.jpg	2054.jpg	61	58	0	i	7	1	971.816641977057	0.3221623	0.3572637	511.289654954802	1	510.3	510.305438848911	0.984216105891392
BM_102	0	2	2	1	107	515.411228889832	1050.jpg	2209.jpg	29	30	1	u	3	1	1314.0503349714	0.5805628	0.5683832	516.745522265788	0.5	515.4	515.411228889832	1.33429337595589
BM_102	0	2	2	1	108	519.498908750946	1192.jpg	1226.jpg	41	43	0	i	5	1	730.356359854341	0.4759987	0.4504471	520.249209767906	0.5	519.5	519.498908750946	0.750301016960293
BM_102	0	2	2	1	109	523.3035833498	2128.jpg	2249.jpg	59	61	1	u	7	1	845.673432108015	0.3387474	0.3221623	524.170331085799	1	523.3	523.3035833498	0.866747735999525
BM_102	0	2	2	1	110	527.708006048808	2124.jpg	1202.jpg	12	10	0	u	1	0	617.259052116424	0.7927174	0.7938321	528.342166887829	1	527.7	527.708006048808	0.634160839021206
BM_102	0	2	2	1	111	531.89595369692	1115.jpg	1182.jpg	21	22	1	u	2	1	1133.29909788445	0.6893962	0.6438978	533.047455816995	0.5	531.9	531.89595369692	1.15150212007575
BM_102	0	2	2	1	112	540.305333075812	2112.jpg	2024.jpg	48	46	0	i	5	1	803.922801045701	0.4293825	0.4382016	541.123478406807	0.5	540.3	540.305333075812	0.818145330995321
BM_102	0	2	2	1	113	544.510419145925	1182.jpg	2041.jpg	22	17	0	i	2	1	822.833176935092	0.6438978	0.7042455	545.344736840809	0.5	544.5	544.510419145925	0.834317694883794
BM_102	0	2	2	1	114	548.197844050825	2054.jpg	1057.jpg	58	64	1	u	7	1	831.407797057182	0.3572637	0.2978265	549.04842519993	1	548.2	548.197844050825	0.850581149104983
BM_102	0	2	2	1	115	551.401454005856	1060.jpg	1130.jpg	65	66	0	i	8	1	859.801952028647	0.2892688	0.2705922	552.271398175973	0.5	551.4	551.401454005856	0.869944170117378
BM_102	0	2	2	1	116	554.504753398942	1207.jpg	2248.jpg	28	26	0	i	3	1	924.501235829666	0.5817812	0.5870975	555.44077585591	0.5	554.5	554.504753398942	0.936022456968203
BM_102	0	2	2	1	117	559.210305577843	1173.jpg	2149.jpg	71	67	0	u	8	0	978.956516133621	0.2144742	0.2653814	560.211576106958	0.5	559.2	559.210305577843	1.00127052911557
BM_102	0	2	2	1	118	562.196723565925	2181.jpg	1146.jpg	37	36	1	u	4	1	904.538613045588	0.5358818	0.5417233	563.114948259899	1	562.2	562.196723565925	0.91822469397448
BM_102	0	2	2	1	119	571.50742564979	1050.jpg	1191.jpg	29	31	1	u	3	1	841.829925077036	0.5805628	0.562526	572.360987301916	0.5	571.5	571.50742564979	0.853561652125791
BM_102	0	2	2	1	120	578.599027775927	1262.jpg	1202.jpg	9	10	0	u	1	0	854.227524017915	0.800094	0.7938321	579.465786805842	1	578.6	578.599027775927	0.866759029915556
BM_102	0	2	2	1	121	589.410490861861	2154.jpg	2125.jpg	15	13	1	u	1	1	1162.7710419707	0.7392127	0.7482539	590.595599812921	1	589.4	589.410490861861	1.1851089510601
BM_102	0	2	2	1	122	596.601778021781	1150.jpg	2110.jpg	72	68	1	u	8	1	995.493779191747	0.2060824	0.2375996	597.619138814975	0.5	596.6	596.601778021781	1.0173607931938
BM_102	0	2	2	1	123	600.906571449945	2024.jpg	1192.jpg	46	41	1	x	5	999	999000	0.4382016	0.4759987	602.408830337925	0.5	600.9	600.906571449945	1.50225888798013
BM_102	0	2	2	1	124	612.503091277787	2008.jpg	2039.jpg	49	56	1	u	6	1	942.173487041146	0.4283112	0.3913198	613.455353865866	1	612.5	612.503091277787	0.952262588078156
BM_102	0	2	2	1	125	620.695645761909	2006.jpg	2149.jpg	70	67	0	u	8	0	973.60950591974	0.2197375	0.2653814	621.680766285863	0.5	620.7	620.695645761909	0.98512052395381
BM_102	0	2	2	1	126	625.400952929864	1144.jpg	2218.jpg	47	44	1	i	5	0	972.309309989214	0.4338517	0.4502692	626.385592765873	0.5	625.4	625.400952929864	0.984639836009592
BM_102	0	2	2	1	127	632.709567193873	1220.jpg	2194.jpg	51	54	0	i	6	1	855.688570067286	0.4226414	0.3993698	633.576780910837	1	632.7	632.709567193873	0.867213716963306
BM_102	0	2	2	1	128	636.997001270996	2008.jpg	1145.jpg	49	50	1	u	6	1	552.260488970205	0.4283112	0.4267485	637.563899033936	1	637	636.997001270996	0.566897762939334
