subjectID	scanner	order	block	run	trial	onsettime	ImageLeft	ImageRight	bidIndexLeft	bidIndexRight	IsleftGo	Response	PairType	Outcome	RT	bidLeft	bidRight	FixationTime	Contingency	PlannedOnset	onset	duration
BM_151	0	3	1	1	1	4.00456712802406	1028.jpg	1130.jpg	47	41	0	i	5	1	1008.44543299172	0.4314825	0.4588565	5.03878275898751	0.5	4	4.00456712802406	1.03421563096344
BM_151	0	3	1	1	2	7.60857875196962	1027.jpg	2164.jpg	42	44	0	i	5	1	924.436667002738	0.4493034	0.4412218	8.56035006197635	0.5	7.6	7.60857875196962	0.951771310006734
BM_151	0	3	1	1	3	12.9984381449758	2249.jpg	1115.jpg	18	21	0	u	2	0	910.574716050178	0.7260452	0.691009	13.9328239060123	1	13	12.9984381449758	0.934385761036538
BM_151	0	3	1	1	4	18.4047578150057	2089.jpg	2016.jpg	40	36	1	u	4	1	864.254906016868	0.4677779	0.5233235	19.2879473199719	0.5	18.4	18.4047578150057	0.88318950496614
BM_151	0	3	1	1	5	22.2084978590137	1019.jpg	2118.jpg	31	32	1	i	3	0	988.51403396111	0.563284	0.5627053	23.2089522909955	1	22.2	22.2084978590137	1.00045443198178
BM_151	0	3	1	1	6	27.6981502560084	1127.jpg	1028.jpg	48	47	1	i	5	0	1250.87293796241	0.4307963	0.4314825	28.9660056959838	0.5	27.7	27.6981502560084	1.26785543997539
BM_151	0	3	1	1	7	33.0038336529979	1017.jpg	2181.jpg	54	51	1	u	6	1	1249.17898798594	0.3858282	0.417575	34.2715259959805	1	33	33.0038336529979	1.26769234298263
BM_151	0	3	1	1	8	37.5093422639766	2041.jpg	1210.jpg	15	9	0	u	1	0	1039.65867502848	0.756274	0.8168155	38.5612423670245	0.5	37.5	37.5093422639766	1.05190010304796
BM_151	0	3	1	1	9	41.0966853129794	2218.jpg	1073.jpg	19	24	0	i	2	1	1276.31577203283	0.7258636	0.6489081	42.3795786069822	1	41.1	41.0966853129794	1.28289329400286
BM_151	0	3	1	1	10	45.7017549509765	1060.jpg	2094.jpg	59	62	1	u	7	1	1423.26707899338	0.3624392	0.3402316	47.1373294650111	1	45.7	45.7017549509765	1.43557451403467
BM_151	0	3	1	1	11	52.1087862739805	2118.jpg	1183.jpg	32	28	0	x	3	999	999000	0.5627053	0.6064071	53.6107596550137	1	52.1	52.1087862739805	1.50197338103317
BM_151	0	3	1	1	12	57.2979101699893	2054.jpg	2039.jpg	66	69	0	u	8	0	1331.09045401216	0.2825326	0.2127854	58.6497372349841	0.5	57.3	57.2979101699893	1.35182706499472
BM_151	0	3	1	1	13	61.20233494899	2089.jpg	2058.jpg	40	38	1	u	4	1	994.676887989044	0.4677779	0.4906817	62.2196473280201	0.5	61.2	61.20233494899	1.01731237903005
BM_151	0	3	1	1	14	67.6093493200024	1246.jpg	1207.jpg	17	23	1	u	2	1	1267.67331600422	0.7261912	0.6606136	68.8946190109709	1	67.6	67.6093493200024	1.28526969096856
BM_151	0	3	1	1	15	71.0967816340271	1017.jpg	1255.jpg	54	50	1	x	6	999	999000	0.3858282	0.4217714	72.6145935740205	1	71.1	71.0967816340271	1.51781193999341
BM_151	0	3	1	1	16	75.3014993119868	2041.jpg	2201.jpg	15	16	0	u	1	0	871.518062020186	0.756274	0.7517481	76.1855435430189	0.5	75.3	75.3014993119868	0.884044231032021
BM_151	0	3	1	1	17	79.1058924929821	2006.jpg	2016.jpg	37	36	1	i	4	0	1003.10879800236	0.5001322	0.5233235	80.1237322610104	0.5	79.1	79.1058924929821	1.01783976802835
BM_151	0	3	1	1	18	82.2097464899998	2008.jpg	2039.jpg	67	69	0	i	8	1	1019.25691997167	0.2700898	0.2127854	83.2441139980219	0.5	82.2	82.2097464899998	1.03436750802211
BM_151	0	3	1	1	19	85.5966743879835	1210.jpg	1114.jpg	9	14	1	u	1	1	928.325487999246	0.8168155	0.7681588	86.5472342920257	0.5	85.6	85.5966743879835	0.950559904042166
BM_151	0	3	1	1	20	89.301038265985	2128.jpg	1019.jpg	26	31	0	u	3	0	1295.97363300854	0.6238086	0.563284	90.6181264179759	1	89.3	89.301038265985	1.3170881519909
BM_151	0	3	1	1	21	93.5054511749768	2249.jpg	1073.jpg	18	24	0	i	2	1	1147.56060804939	0.7260452	0.6489081	94.6727415599744	1	93.5	93.5054511749768	1.16729038499761
BM_151	0	3	1	1	22	99.295612721995	1060.jpg	1150.jpg	59	57	1	i	7	0	1285.39838897996	0.3624392	0.373056	100.596397872025	1	99.3	99.295612721995	1.3007851500297
BM_151	0	3	1	1	23	102.899128696008	1019.jpg	1052.jpg	31	27	1	i	3	0	1345.8840349922	0.563284	0.612391	104.267133989022	1	102.9	102.899128696008	1.36800529301399
BM_151	0	3	1	1	24	107.60474869801	2154.jpg	2124.jpg	63	58	0	u	7	0	1408.26328797266	0.3222263	0.3718075	109.025310833997	1	107.6	107.60474869801	1.42056213598698
BM_151	0	3	1	1	25	113.611855342984	2118.jpg	1007.jpg	32	30	0	i	3	1	1393.14621803351	0.5627053	0.5702661	115.011807436997	1	113.6	113.611855342984	1.39995209401241
BM_151	0	3	1	1	26	117.899184661976	1255.jpg	2229.jpg	50	49	0	u	6	0	1433.8386770105	0.4217714	0.4307079	119.35064301698	1	117.9	117.899184661976	1.45145835500443
BM_151	0	3	1	1	27	123.005564055988	1216.jpg	1255.jpg	52	50	1	i	6	0	1279.43655702984	0.4082441	0.4217714	124.305997147982	1	123	123.005564055988	1.30043309199391
BM_151	0	3	1	1	28	128.695264020993	2153.jpg	2015.jpg	43	45	0	u	5	0	1461.74768998753	0.4437078	0.4398422	130.179323135992	0.5	128.7	128.695264020993	1.48405911499867
BM_151	0	3	1	1	29	135.202166835021	2016.jpg	1202.jpg	36	34	0	i	4	1	1170.84619798698	0.5233235	0.5286924	136.386927963002	0.5	135.2	135.202166835021	1.18476112798089
BM_151	0	3	1	1	30	140.608257444983	1028.jpg	2015.jpg	47	45	0	u	5	0	1196.77121302811	0.4314825	0.4398422	141.825839259021	0.5	140.6	140.608257444983	1.21758181403857
BM_151	0	3	1	1	31	144.996723446995	2181.jpg	1216.jpg	51	52	0	u	6	0	1320.3041239758	0.417575	0.4082441	146.330787768005	1	145	144.996723446995	1.33406432101037
BM_151	0	3	1	1	32	148.300189702015	2240.jpg	2201.jpg	10	16	0	i	1	1	1472.82426996389	0.8134434	0.7517481	149.785565966973	0.5	148.3	148.300189702015	1.48537626495818
BM_151	0	3	1	1	33	153.406008502003	1173.jpg	1202.jpg	39	34	0	u	4	0	1151.00365399849	0.4684188	0.5286924	154.574413290014	0.5	153.4	153.406008502003	1.16840478801169
BM_151	0	3	1	1	34	161.097930510005	2201.jpg	1220.jpg	16	11	1	i	1	0	1131.10763399163	0.7517481	0.798246	162.249755661993	0.5	161.1	161.097930510005	1.15182515198831
BM_151	0	3	1	1	35	164.101289541984	2164.jpg	2125.jpg	44	46	1	u	5	1	1455.7336110156	0.4412218	0.4374168	165.569368775003	0.5	164.1	164.101289541984	1.46807923301822
BM_151	0	3	1	1	36	168.406194620009	1073.jpg	1207.jpg	24	23	1	u	2	1	1038.88561500935	0.6489081	0.6606136	169.457286818011	1	168.4	168.406194620009	1.05109219800215
BM_151	0	3	1	1	37	172.394183280005	2015.jpg	2125.jpg	45	46	1	i	5	0	970.829651982058	0.4398422	0.4374168	173.378514310985	0.5	172.4	172.394183280005	0.984331030980684
BM_151	0	3	1	1	38	175.397731141013	2124.jpg	1150.jpg	58	57	1	u	7	1	1495.30259997118	0.3718075	0.373056	176.91630944697	1	175.4	175.397731141013	1.51857830595691
BM_151	0	3	1	1	39	181.20380585402	1057.jpg	2054.jpg	72	66	1	i	8	0	1057.22437996883	0.1950183	0.2825326	182.272568933025	0.5	181.2	181.20380585402	1.06876307900529
BM_151	0	3	1	1	40	184.907946494	1262.jpg	1173.jpg	35	39	1	i	4	0	1385.07694198051	0.5262903	0.4684188	186.309175068978	0.5	184.9	184.907946494	1.40122857497772
BM_151	0	3	1	1	41	188.695594065008	2229.jpg	2181.jpg	49	51	1	i	6	0	1485.41835398646	0.4307079	0.417575	190.19695241499	1	188.7	188.695594065008	1.50135834998218
BM_151	0	3	1	1	42	198.306401282025	2201.jpg	1114.jpg	16	14	1	i	1	0	1434.62178297341	0.7517481	0.7681588	199.757675246976	0.5	198.3	198.306401282025	1.45127396495081
BM_151	0	3	1	1	43	206.098284294014	2149.jpg	1057.jpg	70	72	0	u	8	0	1370.73732598219	0.2121011	0.1950183	207.483255530009	0.5	206.1	206.098284294014	1.38497123599518
BM_151	0	3	1	1	44	212.105548978026	1202.jpg	2058.jpg	34	38	1	u	4	1	1091.45143500064	0.5286924	0.4906817	213.206983882992	0.5	212.1	212.105548978026	1.10143490496557
BM_151	0	3	1	1	45	221.599267803016	1216.jpg	1228.jpg	52	53	1	x	6	999	999000	0.4082441	0.4034105	223.118055486993	1	221.6	221.599267803016	1.51878768397728
BM_151	0	3	1	1	46	224.602522453992	1073.jpg	2053.jpg	24	22	1	u	2	1	930.478987982497	0.6489081	0.6618461	225.553968082997	1	224.6	224.602522453992	0.95144562900532
BM_151	0	3	1	1	47	230.910259260971	1009.jpg	1216.jpg	56	52	0	i	6	1	1086.76297700731	0.3767193	0.4082441	232.010823240969	1	230.9	230.910259260971	1.1005639799987
BM_151	0	3	1	1	48	234.496921750018	1254.jpg	2218.jpg	20	19	1	u	2	1	1172.09950496908	0.7109744	0.7258636	235.682258907007	1	234.5	234.496921750018	1.18533715698868
BM_151	0	3	1	1	49	240.30372459197	1007.jpg	1013.jpg	30	29	1	u	3	1	1293.27630402986	0.5702661	0.5988141	241.608962963976	1	240.3	240.30372459197	1.30523837200599
BM_151	0	3	1	1	50	245.009463528986	1050.jpg	2094.jpg	64	62	1	u	7	1	1035.53726099199	0.3180267	0.3402316	246.060040568991	1	245	245.009463528986	1.05057704000501
BM_151	0	3	1	1	51	248.696571229026	1192.jpg	2054.jpg	65	66	1	u	8	1	1140.42933296878	0.3109916	0.2825326	249.848860041995	0.5	248.7	248.696571229026	1.15228881296935
BM_151	0	3	1	1	52	255.103596772009	2124.jpg	1226.jpg	58	60	1	u	7	1	1429.40378101775	0.3718075	0.3447328	256.555202001007	1	255.1	255.103596772009	1.45160522899823
BM_151	0	3	1	1	53	261.010385725007	1057.jpg	2112.jpg	72	71	1	i	8	0	1002.63703998644	0.1950183	0.2075662	262.027419410995	0.5	261	261.010385725007	1.01703368598828
BM_151	0	3	1	1	54	266.499926069984	2008.jpg	1192.jpg	67	65	0	i	8	1	1185.07726403186	0.2700898	0.3109916	267.700542714971	0.5	266.5	266.499926069984	1.20061664498644
BM_151	0	3	1	1	55	269.50297816802	2111.jpg	2149.jpg	68	70	1	u	8	1	1382.0388049935	0.2662878	0.2121011	270.904228397005	0.5	269.5	269.50297816802	1.40125022898428
BM_151	0	3	1	1	56	274.208503614005	2128.jpg	1183.jpg	26	28	0	u	3	0	1388.51768098539	0.6238086	0.6064071	275.609438158979	1	274.2	274.208503614005	1.40093454497401
BM_151	0	3	1	1	57	282.100822597975	2218.jpg	1246.jpg	19	17	0	i	2	1	1264.19010403333	0.7258636	0.7261912	283.384830494004	1	282.1	282.100822597975	1.28400789602892
BM_151	0	3	1	1	58	290.610418947996	1028.jpg	2164.jpg	47	44	0	u	5	0	1258.58518102905	0.4314825	0.4412218	291.881514682027	0.5	290.6	290.610418947996	1.27109573403141
BM_151	0	3	1	1	59	294.698533018993	1031.jpg	2041.jpg	13	15	1	u	1	1	1402.48964901548	0.784339	0.756274	296.115928268002	0.5	294.7	294.698533018993	1.41739524900913
BM_151	0	3	1	1	60	297.801753617008	1060.jpg	1226.jpg	59	60	1	i	7	0	1195.25831198553	0.3624392	0.3447328	299.020124652016	1	297.8	297.801753617008	1.21837103500729
BM_151	0	3	1	1	61	301.40581803699	2094.jpg	2124.jpg	62	58	0	i	7	1	1175.18312501488	0.3402316	0.3718075	302.591219005	1	301.4	301.40581803699	1.18540096801007
BM_151	0	3	1	1	62	305.810459717002	1262.jpg	2016.jpg	35	36	1	x	4	999	999000	0.5262903	0.5233235	307.312408065016	0.5	305.8	305.810459717002	1.50194834801368
BM_151	0	3	1	1	63	309.798314822023	1183.jpg	1013.jpg	28	29	1	i	3	0	1102.68950200407	0.6064071	0.5988141	310.915830716025	1	309.8	309.798314822023	1.11751589400228
BM_151	0	3	1	1	64	319.008709868009	1220.jpg	1210.jpg	11	9	0	u	1	0	948.30190698849	0.798246	0.8168155	319.976371028984	0.5	319	319.008709868009	0.967661160975695
BM_151	0	3	2	1	65	322.012246873986	1130.jpg	1027.jpg	41	42	1	u	5	1	1168.78986603115	0.4588565	0.4493034	323.196297887014	0.5	322	322.012246873986	1.18405101302778
BM_151	0	3	2	1	66	325.599436120014	2153.jpg	1130.jpg	43	41	0	u	5	0	925.586230994668	0.4437078	0.4588565	326.537540134974	0.5	325.6	325.599436120014	0.938104014960118
BM_151	0	3	2	1	67	331.005425415991	1254.jpg	2053.jpg	20	22	1	u	2	1	895.597997994628	0.7109744	0.6618461	331.923578097019	1	331	331.005425415991	0.918152681028005
BM_151	0	3	2	1	68	336.395518091973	2089.jpg	1035.jpg	40	33	1	u	4	1	889.494432020001	0.4677779	0.5437909	337.296971314005	0.5	336.4	336.395518091973	0.901453222031705
BM_151	0	3	2	1	69	340.199202047021	1013.jpg	1019.jpg	29	31	0	u	3	0	1245.82015397027	0.5988141	0.563284	341.466863984999	1	340.2	340.199202047021	1.26766193797812
BM_151	0	3	2	1	70	345.705826385005	2125.jpg	1127.jpg	46	48	0	u	5	0	1235.19641597522	0.4374168	0.4307963	346.956344069971	0.5	345.7	345.705826385005	1.25051768496633
BM_151	0	3	2	1	71	351.011537284998	1009.jpg	2024.jpg	56	55	0	u	6	0	1209.48476501508	0.3767193	0.3776858	352.233084433014	1	351	351.011537284998	1.22154714801582
BM_151	0	3	2	1	72	355.49984449998	1220.jpg	2043.jpg	11	12	0	u	1	0	1257.18514400069	0.798246	0.7939159	356.769419689022	0.5	355.5	355.49984449998	1.26957518904237
BM_151	0	3	2	1	73	359.103768245026	2218.jpg	1115.jpg	19	21	0	i	2	1	1437.24469299195	0.7258636	0.691009	360.555169939005	1	359.1	359.103768245026	1.45140169397928
BM_151	0	3	2	1	74	363.709709323011	1226.jpg	1050.jpg	60	64	0	i	7	1	1151.31593996193	0.3447328	0.3180267	364.876545180974	1	363.7	363.709709323011	1.16683585796272
BM_151	0	3	2	1	75	370.099297731009	1182.jpg	1013.jpg	25	29	1	i	3	0	1377.7270700084	0.6241471	0.5988141	371.483499698981	1	370.1	370.099297731009	1.38420196797233
BM_151	0	3	2	1	76	375.305398837023	2008.jpg	2111.jpg	67	68	0	i	8	1	1427.61321895523	0.2700898	0.2662878	376.745207806001	0.5	375.3	375.305398837023	1.43980896897847
BM_151	0	3	2	1	77	379.209632381971	2089.jpg	1173.jpg	40	39	1	u	4	1	1059.39084803686	0.4677779	0.4684188	380.278645339014	0.5	379.2	379.209632381971	1.06901295704301
BM_151	0	3	2	1	78	385.600199055974	1246.jpg	2053.jpg	17	22	1	u	2	1	1084.82332603307	0.7261912	0.6618461	386.701893362973	1	385.6	385.600199055974	1.10169430699898
BM_151	0	3	2	1	79	389.104635837022	2024.jpg	1228.jpg	55	53	1	i	6	0	1084.38840997405	0.3776858	0.4034105	390.204961730982	1	389.1	389.104635837022	1.10032589395996
BM_151	0	3	2	1	80	393.309217710979	1114.jpg	1031.jpg	14	13	0	u	1	0	1247.80460703187	0.7681588	0.784339	394.576872061007	0.5	393.3	393.309217710979	1.26765435002744
BM_151	0	3	2	1	81	397.096676093992	2006.jpg	1173.jpg	37	39	1	i	4	0	1212.34836999793	0.5001322	0.4684188	398.330677904014	0.5	397.1	397.096676093992	1.23400181002216
BM_151	0	3	2	1	82	400.199871052988	2111.jpg	2112.jpg	68	71	1	u	8	1	1469.14102102164	0.2662878	0.2075662	401.685444440984	0.5	400.2	400.199871052988	1.48557338799583
BM_151	0	3	2	1	83	403.603802552971	2043.jpg	2240.jpg	12	10	1	i	1	0	1137.24495400675	0.7939159	0.8134434	404.755319871008	0.5	403.6	403.603802552971	1.1515173180378
BM_151	0	3	2	1	84	407.307879208995	1007.jpg	2128.jpg	30	26	1	u	3	1	1201.12179400166	0.5702661	0.6238086	408.526276837976	1	407.3	407.307879208995	1.21839762898162
BM_151	0	3	2	1	85	411.495822215977	1207.jpg	1254.jpg	23	20	0	i	2	1	1261.18487503845	0.6606136	0.7109744	412.781200831989	1	411.5	411.495822215977	1.28537861601217
BM_151	0	3	2	1	86	417.302755718993	2154.jpg	1146.jpg	63	61	0	i	7	1	1206.25679503428	0.3222263	0.3429589	418.521333044977	1	417.3	417.302755718993	1.21857732598437
BM_151	0	3	2	1	87	420.906753091025	1052.jpg	1007.jpg	27	30	0	i	3	1	1426.27003794769	0.612391	0.5702661	422.34531900601	1	420.9	420.906753091025	1.43856591498479
BM_151	0	3	2	1	88	425.595467914012	2094.jpg	1146.jpg	62	61	0	i	7	1	1361.53384699719	0.3402316	0.3429589	426.980613745982	1	425.6	425.595467914012	1.38514583196957
BM_151	0	3	2	1	89	431.602187046024	1183.jpg	1052.jpg	28	27	1	u	3	1	1306.82520195842	0.6064071	0.612391	432.921468433982	1	431.6	431.602187046024	1.31928138795774
BM_151	0	3	2	1	90	435.907114289002	2229.jpg	1228.jpg	49	53	1	i	6	0	1409.89939396968	0.4307079	0.4034105	437.325431404985	1	435.9	435.907114289002	1.41831711598206
BM_151	0	3	2	1	91	440.995687711984	1228.jpg	1017.jpg	53	54	0	i	6	1	1481.32430901751	0.4034105	0.3858282	442.497754603974	1	441	440.995687711984	1.50206689198967
BM_151	0	3	2	1	92	446.702575165022	1027.jpg	2015.jpg	42	45	0	i	5	1	1310.42780296411	0.4493034	0.4398422	448.019489195023	0.5	446.7	446.702575165022	1.3169140300015
BM_151	0	3	2	1	93	453.20946211298	1202.jpg	1035.jpg	34	33	1	u	4	1	1259.55970800715	0.5286924	0.5437909	454.481476672983	0.5	453.2	453.20946211298	1.2720145600033
BM_151	0	3	2	1	94	458.598944642988	2153.jpg	1127.jpg	43	48	0	u	5	0	1190.05646003643	0.4437078	0.4307963	459.800426337984	0.5	458.6	458.598944642988	1.20148169499589
BM_151	0	3	2	1	95	463.00381782098	1009.jpg	1017.jpg	56	54	0	i	6	1	1057.1954830084	0.3767193	0.3858282	464.072940826998	1	463	463.00381782098	1.06912300601834
BM_151	0	3	2	1	96	466.307787431986	2041.jpg	2043.jpg	15	12	0	u	1	0	1033.21354300715	0.756274	0.7939159	467.358381261001	0.5	466.3	466.307787431986	1.05059382901527
BM_151	0	3	2	1	97	471.396717751981	2058.jpg	1262.jpg	38	35	0	i	4	1	1208.30522303004	0.4906817	0.5262903	472.617285408021	0.5	471.4	471.396717751981	1.22056765604066
BM_151	0	3	2	1	98	479.105198169011	1031.jpg	2240.jpg	13	10	1	u	1	1	1019.84179596184	0.784339	0.8134434	480.139675775019	0.5	479.1	479.105198169011	1.03447760600829
BM_151	0	3	2	1	99	482.108843893977	2125.jpg	1130.jpg	46	41	0	x	5	999	999000	0.4374168	0.4588565	483.609847798012	0.5	482.1	482.108843893977	1.50100390403531
BM_151	0	3	2	1	100	486.396919484017	1115.jpg	1207.jpg	21	23	1	i	2	0	1144.09366197651	0.691009	0.6606136	487.565233770991	1	486.4	486.396919484017	1.16831428697333
BM_151	0	3	2	1	101	490.401436060027	1027.jpg	1127.jpg	42	48	0	i	5	1	1219.58661597455	0.4493034	0.4307963	491.63665937999	0.5	490.4	490.401436060027	1.23522331996355
BM_151	0	3	2	1	102	493.404708385002	1060.jpg	2154.jpg	59	63	1	i	7	0	1368.3146769763	0.3624392	0.3222263	494.789467292023	1	493.4	493.404708385002	1.38475890702102
BM_151	0	3	2	1	103	499.211432192998	2149.jpg	2039.jpg	70	69	0	x	8	999	999000	0.2121011	0.2127854	500.712616726989	0.5	499.2	499.211432192998	1.50118453399045
BM_151	0	3	2	1	104	502.898747762025	2006.jpg	2058.jpg	37	38	1	i	4	0	1250.27566298377	0.5001322	0.4906817	504.167532154999	0.5	502.9	502.898747762025	1.26878439297434
BM_151	0	3	2	1	105	506.702907903004	1009.jpg	2229.jpg	56	49	0	i	6	1	894.113981979899	0.3767193	0.4307079	507.608690356021	1	506.7	506.702907903004	0.905782453017309
BM_151	0	3	2	1	106	516.297083321027	1031.jpg	1220.jpg	13	11	1	i	1	0	1243.92607994378	0.784339	0.798246	517.549661908997	0.5	516.3	516.297083321027	1.25257858796977
BM_151	0	3	2	1	107	524.106023870991	2112.jpg	2039.jpg	71	69	0	u	8	0	1251.00448902231	0.2075662	0.2127854	525.37437735399	0.5	524.1	524.106023870991	1.26835348299937
BM_151	0	3	2	1	108	530.095870992984	1262.jpg	1035.jpg	35	33	1	u	4	1	1261.15195202874	0.5262903	0.5437909	531.381320709013	0.5	530.1	530.095870992984	1.28544971602969
BM_151	0	3	2	1	109	539.606534815975	1255.jpg	2024.jpg	50	55	0	u	6	0	1326.4873350272	0.4217714	0.3776858	540.941025002976	1	539.6	539.606534815975	1.33449018700048
BM_151	0	3	2	1	110	542.609994012979	2053.jpg	1115.jpg	22	21	0	u	2	0	1147.04092399916	0.6618461	0.691009	543.777562494972	1	542.6	542.609994012979	1.16756848199293
BM_151	0	3	2	1	111	548.900295524974	2024.jpg	2181.jpg	55	51	1	i	6	0	1232.72820201237	0.3776858	0.417575	550.15215531498	1	548.9	548.900295524974	1.25185979000526
BM_151	0	3	2	1	112	552.504587810021	1254.jpg	2249.jpg	20	18	1	u	2	1	1124.43563097622	0.7109744	0.7260452	553.641147526971	1	552.5	552.504587810021	1.13655971694971
BM_151	0	3	2	1	113	558.311769102002	1182.jpg	2118.jpg	25	32	1	u	3	1	1269.25362501061	0.6241471	0.5627053	559.595735292998	1	558.3	558.311769102002	1.28396619099658
BM_151	0	3	2	1	114	563.000040406012	1050.jpg	2154.jpg	64	63	1	u	7	1	1276.96229499998	0.3180267	0.3222263	564.285635354987	1	563	563.000040406012	1.2855949489749
BM_151	0	3	2	1	115	566.704171309015	2149.jpg	1192.jpg	70	65	0	i	8	1	1276.83853096096	0.2121011	0.3109916	567.987754317001	0.5	566.7	566.704171309015	1.28358300798573
BM_151	0	3	2	1	116	573.111267592001	1150.jpg	1146.jpg	57	61	0	i	7	1	1437.73423501989	0.373056	0.3429589	574.563251095999	1	573.1	573.111267592001	1.45198350399733
BM_151	0	3	2	1	117	579.000988118991	1057.jpg	2008.jpg	72	67	1	x	8	999	999000	0.1950183	0.2700898	580.518997691979	0.5	579	579.000988118991	1.51800957298838
BM_151	0	3	2	1	118	584.507057812007	2112.jpg	1192.jpg	71	65	0	i	8	1	817.965995986015	0.2075662	0.3109916	585.341883421002	0.5	584.5	584.507057812007	0.834825608995743
BM_151	0	3	2	1	119	587.510789990018	2054.jpg	2111.jpg	66	68	0	i	8	1	982.233258953784	0.2825326	0.2662878	588.511588466004	0.5	587.5	587.510789990018	1.00079847598681
BM_151	0	3	2	1	120	592.199226411991	2128.jpg	1182.jpg	26	25	0	i	3	1	1205.78580000438	0.6238086	0.6241471	593.417304276023	1	592.2	592.199226411991	1.21807786403224
BM_151	0	3	2	1	121	600.107829645975	1246.jpg	2249.jpg	17	18	1	u	2	1	913.183066004422	0.7261912	0.7260452	601.041963569005	1	600.1	600.107829645975	0.934133923030458
BM_151	0	3	2	1	122	608.601324193995	2164.jpg	2153.jpg	44	43	1	i	5	0	1139.68836201821	0.4412218	0.4437078	609.752839769993	0.5	608.6	608.601324193995	1.15151557599893
BM_151	0	3	2	1	123	612.705649681971	1114.jpg	2043.jpg	14	12	0	u	1	0	867.351343040355	0.7681588	0.7939159	613.590290624998	0.5	612.7	612.705649681971	0.88464094302617
BM_151	0	3	2	1	124	615.808882233978	1150.jpg	1050.jpg	57	64	0	i	7	1	1108.13047399279	0.373056	0.3180267	616.927405241004	1	615.8	615.808882233978	1.11852300702594
BM_151	0	3	2	1	125	619.396673016017	1226.jpg	1146.jpg	60	61	0	i	7	1	952.329027990345	0.3447328	0.3429589	620.364693144977	1	619.4	619.396673016017	0.968020128959324
BM_151	0	3	2	1	126	623.801266423019	2006.jpg	1035.jpg	37	33	1	i	4	0	883.756911964156	0.5001322	0.5437909	624.702171127021	0.5	623.8	623.801266423019	0.900904704001732
BM_151	0	3	2	1	127	627.806477639009	1052.jpg	1182.jpg	27	25	0	i	3	1	1038.53458899539	0.612391	0.6241471	628.857000131975	1	627.8	627.806477639009	1.05052249296568
BM_151	0	3	2	1	128	637.000159433985	2240.jpg	1210.jpg	10	9	0	i	1	1	972.866190015338	0.8134434	0.8168155	637.985196597991	0.5	637	637.000159433985	0.985037164005917
