subjectID	scanner	order	block	run	trial	onsettime	ImageLeft	ImageRight	bidIndexLeft	bidIndexRight	IsleftGo	Response	PairType	Outcome	RT	bidLeft	bidRight
bfer_102	0	2	01	2	1	2.018827e+00	1216.jpg	1212.jpg	11	13	1	u	1	1	1027.86	0.65	0.63
bfer_102	0	2	01	2	2	7.024421e+00	2213.jpg	2110.jpg	49	58	1	u	2	1	774.26	0.61	0.52
bfer_102	0	2	01	2	3	1.501680e+01	1105.jpg	1218.jpg	37	3	0	i	3	1	749.89	0.22	0.84
bfer_102	0	2	01	2	4	1.802018e+01	2110.jpg	2107.jpg	58	56	0	i	2	1	802.50	0.52	0.56
bfer_102	0	2	01	2	5	2.501126e+01	2207.jpg	2109.jpg	54	50	1	u	2	1	979.43	0.56	0.60
bfer_102	0	2	01	2	6	2.801467e+01	2101.jpg	2107.jpg	55	56	0	i	2	1	624.01	0.56	0.56
bfer_102	0	2	01	2	7	3.901014e+01	1104.jpg	1201.jpg	16	12	1	i	1	0	980.55	0.58	0.63
bfer_102	0	2	01	2	8	4.301486e+01	2213.jpg	2209.jpg	49	47	1	i	2	0	847.83	0.61	0.69
bfer_102	0	2	01	2	9	4.701936e+01	1207.jpg	1209.jpg	8	15	1	i	1	0	627.32	0.74	0.62
bfer_102	0	2	01	2	10	5.002273e+01	1101.jpg	1218.jpg	38	3	0	i	3	1	759.96	0.18	0.84
bfer_102	0	2	01	2	11	5.302606e+01	2204.jpg	2215.jpg	48	53	1	i	2	0	684.62	0.62	0.58
bfer_102	0	2	01	2	12	5.801504e+01	1212.jpg	1104.jpg	13	16	0	u	1	0	727.64	0.63	0.58
bfer_102	0	2	01	2	13	6.201945e+01	2209.jpg	2107.jpg	47	56	0	i	2	1	859.24	0.69	0.56
bfer_102	0	2	01	2	14	7.101291e+01	1216.jpg	1215.jpg	11	18	1	u	1	1	985.77	0.65	0.57
bfer_102	0	2	01	2	15	7.401629e+01	2110.jpg	2214.jpg	58	57	0	i	2	1	1150.39	0.52	0.53
bfer_102	0	2	01	2	16	7.902187e+01	1113.jpg	1208.jpg	19	21	0	u	5	0	1416.83	0.56	0.52
bfer_102	0	2	01	2	17	8.501195e+01	1113.jpg	1204.jpg	19	20	0	i	5	1	698.74	0.56	0.52
bfer_102	0	2	01	2	18	8.801533e+01	1203.jpg	1217.jpg	14	7	1	u	1	1	399.36	0.62	0.75
bfer_102	0	2	01	2	19	9.302091e+01	2109.jpg	2219.jpg	50	51	0	i	2	1	697.79	0.60	0.60
bfer_102	0	2	01	2	20	9.702544e+01	2210.jpg	2207.jpg	52	54	0	i	2	1	573.24	0.59	0.56
bfer_102	0	2	01	2	21	1.020144e+02	2209.jpg	2219.jpg	47	51	0	u	2	0	608.31	0.69	0.60
bfer_102	0	2	01	2	22	1.070200e+02	1216.jpg	1209.jpg	11	15	1	i	1	0	690.65	0.65	0.62
bfer_102	0	2	01	2	23	1.100233e+02	1203.jpg	1215.jpg	14	18	1	i	1	0	1015.38	0.62	0.57
bfer_102	0	2	01	2	24	1.130098e+02	2110.jpg	2219.jpg	58	51	0	i	2	1	708.90	0.52	0.60
bfer_102	0	2	01	2	25	1.250235e+02	1205.jpg	1201.jpg	17	12	1	i	1	0	895.22	0.58	0.63
bfer_102	0	2	01	2	26	1.290111e+02	1214.jpg	1104.jpg	10	16	0	u	1	0	1107.62	0.67	0.58
bfer_102	0	2	01	2	27	1.320147e+02	2207.jpg	2110.jpg	54	58	1	u	2	1	1280.00	0.56	0.52
bfer_102	0	2	01	2	28	1.390226e+02	2215.jpg	2107.jpg	53	56	0	i	2	1	880.13	0.58	0.56
bfer_102	0	2	01	2	29	1.420089e+02	2204.jpg	2109.jpg	48	50	1	u	2	1	821.76	0.62	0.60
bfer_102	0	2	01	2	30	1.490170e+02	1207.jpg	1201.jpg	8	12	1	i	1	0	1085.67	0.74	0.63
bfer_102	0	2	01	2	31	1.540227e+02	2103.jpg	2105.jpg	43	78	1	i	4	0	999.96	0.74	0.26
bfer_102	0	2	01	2	32	1.580105e+02	2213.jpg	2109.jpg	49	50	1	i	2	0	828.18	0.61	0.60
bfer_102	0	2	01	2	33	1.630161e+02	2208.jpg	2205.jpg	59	60	0	i	6	1	830.55	0.51	0.51
bfer_102	0	2	01	2	34	1.690228e+02	1203.jpg	1201.jpg	14	12	1	i	1	0	727.86	0.62	0.63
bfer_102	0	2	01	2	35	1.730107e+02	1212.jpg	1203.jpg	13	14	0	i	1	1	876.01	0.63	0.62
bfer_102	0	2	01	2	36	1.760140e+02	1210.jpg	1212.jpg	9	13	1	u	1	1	1024.70	0.72	0.63
bfer_102	0	2	01	2	37	1.790174e+02	2111.jpg	2217.jpg	77	44	0	i	4	1	821.30	0.26	0.71
bfer_102	0	2	01	2	38	1.820208e+02	1217.jpg	1205.jpg	7	17	0	u	1	0	617.92	0.75	0.58
bfer_102	0	2	01	2	39	1.860252e+02	2218.jpg	2205.jpg	62	60	0	i	6	1	949.50	0.49	0.51
bfer_102	0	2	01	2	40	1.900130e+02	1205.jpg	1209.jpg	17	15	1	i	1	0	873.64	0.58	0.62
bfer_102	0	2	01	2	41	1.960198e+02	2210.jpg	2219.jpg	52	51	0	i	2	1	1130.88	0.59	0.60
bfer_102	0	2	01	2	42	2.050132e+02	1104.jpg	1217.jpg	16	7	1	u	1	1	961.51	0.58	0.75
bfer_102	0	2	01	2	43	2.080165e+02	2209.jpg	2204.jpg	47	48	0	i	2	1	822.14	0.69	0.62
bfer_102	0	2	01	2	44	2.120210e+02	1216.jpg	1214.jpg	11	10	1	u	1	1	1025.64	0.65	0.67
