subjectID	scanner	order	block	run	trial	onsettime	ImageLeft	ImageRight	bidIndexLeft	bidIndexRight	IsleftGo	Response	PairType	Outcome	RT	bidLeft	bidRight
bfer_125	0	1	01	1	1	2.018834e+00	1111.jpg	1109.jpg	12	8	1	x	1	999	999000.00	0.60	0.67
bfer_125	0	1	01	1	2	6.023303e+00	2201.jpg	2106.jpg	53	54	1	u	2	1	899.45	0.63	0.62
bfer_125	0	1	01	1	3	9.026626e+00	1202.jpg	1214.jpg	13	16	1	u	1	1	776.11	0.60	0.57
bfer_125	0	1	01	1	4	1.601786e+01	1202.jpg	1108.jpg	13	11	1	u	1	1	1472.89	0.60	0.61
bfer_125	0	1	01	1	5	1.902125e+01	1217.jpg	1109.jpg	7	8	1	i	1	0	741.49	0.68	0.67
bfer_125	0	1	01	1	6	2.502796e+01	1217.jpg	1214.jpg	7	16	1	i	1	0	742.77	0.68	0.57
bfer_125	0	1	01	1	7	3.001688e+01	1114.jpg	1103.jpg	38	4	0	i	3	1	697.86	0.24	0.76
bfer_125	0	1	01	1	8	3.302025e+01	2202.jpg	2104.jpg	56	58	0	u	2	0	894.48	0.60	0.57
bfer_125	0	1	01	1	9	3.802592e+01	1106.jpg	1111.jpg	17	12	0	i	1	1	1272.80	0.57	0.60
bfer_125	0	1	01	1	10	4.102935e+01	1108.jpg	1217.jpg	11	7	0	i	1	1	1357.39	0.61	0.68
bfer_125	0	1	01	1	11	4.701936e+01	2117.jpg	2110.jpg	78	43	0	u	4	0	727.38	0.28	0.86
bfer_125	0	1	01	1	12	5.302621e+01	2101.jpg	2202.jpg	52	56	1	u	2	1	1112.52	0.66	0.60
bfer_125	0	1	01	1	13	5.901615e+01	2109.jpg	2116.jpg	48	55	0	i	2	1	330.58	0.75	0.61
bfer_125	0	1	01	1	14	6.201953e+01	2205.jpg	2111.jpg	51	50	0	i	2	1	631.22	0.68	0.69
bfer_125	0	1	01	1	15	6.502294e+01	2109.jpg	2111.jpg	48	50	0	u	2	0	1083.79	0.75	0.69
bfer_125	0	1	01	1	16	6.802635e+01	2109.jpg	2101.jpg	48	52	0	u	2	0	688.39	0.75	0.66
bfer_125	0	1	01	1	17	7.201378e+01	1108.jpg	1111.jpg	11	12	0	i	1	1	636.95	0.61	0.60
bfer_125	0	1	01	1	18	7.601862e+01	1208.jpg	1106.jpg	15	17	1	i	1	0	224.13	0.59	0.57
bfer_125	0	1	01	1	19	7.902198e+01	2204.jpg	2101.jpg	49	52	0	i	2	1	924.76	0.70	0.66
bfer_125	0	1	01	1	20	8.901661e+01	2202.jpg	2116.jpg	56	55	0	i	2	1	1234.12	0.60	0.61
bfer_125	0	1	01	1	21	1.000289e+02	1106.jpg	1216.jpg	17	10	0	i	1	1	1037.80	0.57	0.63
bfer_125	0	1	01	1	22	1.060190e+02	2118.jpg	2215.jpg	77	44	0	i	4	1	823.74	0.33	0.83
bfer_125	0	1	01	1	23	1.110246e+02	1208.jpg	1108.jpg	15	11	1	u	1	1	882.17	0.59	0.61
bfer_125	0	1	01	1	24	1.150291e+02	1111.jpg	1214.jpg	12	16	1	i	1	0	845.63	0.60	0.57
bfer_125	0	1	01	1	25	1.210192e+02	1217.jpg	1106.jpg	7	17	1	x	1	999	999000.00	0.68	0.57
bfer_125	0	1	01	1	26	1.310305e+02	2104.jpg	2219.jpg	58	57	1	i	2	0	812.26	0.57	0.58
bfer_125	0	1	01	1	27	1.340171e+02	1119.jpg	1108.jpg	18	11	1	i	1	0	857.69	0.56	0.61
bfer_125	0	1	01	1	28	1.370205e+02	2206.jpg	2209.jpg	60	62	0	i	6	1	758.23	0.55	0.53
bfer_125	0	1	01	1	29	1.400238e+02	1120.jpg	1202.jpg	9	13	0	i	1	1	794.93	0.66	0.60
bfer_125	0	1	01	1	30	1.440283e+02	2103.jpg	2204.jpg	47	49	1	u	2	1	1358.45	0.77	0.70
bfer_125	0	1	01	1	31	1.500184e+02	2209.jpg	2208.jpg	62	61	1	i	6	0	600.29	0.53	0.53
bfer_125	0	1	01	1	32	1.540229e+02	2103.jpg	2109.jpg	47	48	1	u	2	1	1027.82	0.77	0.75
bfer_125	0	1	01	1	33	1.620149e+02	2109.jpg	2201.jpg	48	53	0	i	2	1	155.88	0.75	0.63
bfer_125	0	1	01	1	34	1.670208e+02	2103.jpg	2106.jpg	47	54	1	u	2	1	869.94	0.77	0.62
bfer_125	0	1	01	1	35	1.750298e+02	2208.jpg	2207.jpg	61	59	0	i	6	1	1060.92	0.53	0.56
bfer_125	0	1	01	1	36	1.820211e+02	1106.jpg	1119.jpg	17	18	0	u	1	0	925.68	0.57	0.56
bfer_125	0	1	01	1	37	1.850244e+02	1120.jpg	1216.jpg	9	10	0	i	1	1	658.31	0.66	0.63
bfer_125	0	1	01	1	38	1.890289e+02	2201.jpg	2205.jpg	53	51	1	i	2	0	685.87	0.63	0.68
bfer_125	0	1	01	1	39	1.920160e+02	2101.jpg	2219.jpg	52	57	1	u	2	1	866.77	0.66	0.58
bfer_125	0	1	01	1	40	1.950190e+02	1109.jpg	1216.jpg	8	10	0	i	1	1	671.78	0.67	0.63
bfer_125	0	1	01	1	41	2.000246e+02	2117.jpg	2215.jpg	78	44	0	u	4	0	1098.15	0.28	0.83
bfer_125	0	1	01	1	42	2.040291e+02	1208.jpg	1120.jpg	15	9	1	i	1	0	869.67	0.59	0.66
bfer_125	0	1	01	1	43	2.080169e+02	2201.jpg	2204.jpg	53	49	1	u	2	1	1065.89	0.63	0.70
bfer_125	0	1	01	1	44	2.110203e+02	1120.jpg	1217.jpg	9	7	0	u	1	0	974.46	0.66	0.68
bfer_125	0	1	01	1	45	2.160260e+02	2103.jpg	2219.jpg	47	57	1	u	2	1	704.80	0.77	0.58
bfer_125	0	1	01	1	46	2.190293e+02	2111.jpg	2106.jpg	50	54	1	i	2	0	1109.47	0.69	0.62
bfer_125	0	1	01	1	47	2.240182e+02	2206.jpg	2207.jpg	60	59	0	i	6	1	1360.54	0.55	0.56
bfer_125	0	1	01	1	48	2.320272e+02	2116.jpg	2219.jpg	55	57	1	i	2	0	791.55	0.61	0.58
bfer_125	0	1	01	1	49	2.380173e+02	1108.jpg	1216.jpg	11	10	0	i	1	1	609.48	0.61	0.63
bfer_125	0	1	01	1	50	2.470274e+02	2201.jpg	2219.jpg	53	57	1	u	2	1	1095.32	0.63	0.58
bfer_125	0	1	01	1	51	2.590242e+02	1112.jpg	1103.jpg	37	4	0	i	3	1	770.56	0.24	0.76
bfer_125	0	1	01	1	52	2.620275e+02	1119.jpg	1205.jpg	18	14	1	x	1	999	999000.00	0.56	0.59
bfer_125	0	1	01	1	53	2.690187e+02	2106.jpg	2104.jpg	54	58	0	u	2	0	687.99	0.62	0.57
bfer_125	0	1	01	1	54	2.730232e+02	2205.jpg	2103.jpg	51	47	0	i	2	1	1443.51	0.68	0.77
bfer_125	0	1	01	1	55	2.760266e+02	1214.jpg	1208.jpg	16	15	0	u	1	0	920.10	0.57	0.59
bfer_125	0	1	01	1	56	2.790300e+02	1205.jpg	1217.jpg	14	7	0	u	1	0	820.72	0.59	0.68
bfer_125	0	1	01	1	57	2.830178e+02	2204.jpg	2111.jpg	49	50	0	i	2	1	688.96	0.70	0.69
bfer_125	0	1	01	1	58	2.890245e+02	1111.jpg	1120.jpg	12	9	1	u	1	1	954.23	0.60	0.66
bfer_125	0	1	01	1	59	2.920279e+02	1205.jpg	1111.jpg	14	12	0	i	1	1	750.81	0.59	0.60
bfer_125	0	1	01	1	60	3.010214e+02	1118.jpg	1107.jpg	21	22	0	i	5	1	1341.33	0.51	0.49
bfer_125	0	1	01	1	61	3.040247e+02	2201.jpg	2202.jpg	53	56	1	i	2	0	921.99	0.63	0.60
bfer_125	0	1	01	1	62	3.090303e+02	2111.jpg	2219.jpg	50	57	1	i	2	0	836.41	0.69	0.58
bfer_125	0	1	01	1	63	3.170227e+02	1211.jpg	1118.jpg	19	21	1	u	5	1	980.07	0.55	0.51
bfer_125	0	1	01	1	64	3.220282e+02	2204.jpg	2104.jpg	49	58	0	i	2	1	1038.51	0.70	0.57
bfer_125	0	1	01	1	65	3.250146e+02	1202.jpg	1109.jpg	13	8	1	i	1	0	732.10	0.60	0.67
bfer_125	0	1	01	1	66	3.280184e+02	1107.jpg	1201.jpg	22	20	1	i	5	0	1168.37	0.49	0.52
bfer_125	0	1	01	1	67	3.380295e+02	2109.jpg	2104.jpg	48	58	0	u	2	0	717.21	0.75	0.57
bfer_125	0	1	01	1	68	3.410163e+02	2106.jpg	2116.jpg	54	55	0	u	2	0	1034.42	0.62	0.61
bfer_125	0	1	01	1	69	3.440197e+02	1205.jpg	1202.jpg	14	13	0	i	1	1	839.06	0.59	0.60
bfer_125	0	1	01	1	70	3.470230e+02	2116.jpg	2205.jpg	55	51	1	i	2	0	715.76	0.61	0.68
bfer_125	0	1	01	1	71	3.510275e+02	1120.jpg	1119.jpg	9	18	0	u	1	0	967.21	0.66	0.56
bfer_125	0	1	01	1	72	3.540309e+02	2103.jpg	2202.jpg	47	56	1	u	2	1	891.83	0.77	0.60
bfer_125	0	1	01	1	73	3.570176e+02	2205.jpg	2104.jpg	51	58	0	u	2	0	889.12	0.68	0.57
bfer_125	0	1	01	1	74	3.600210e+02	1109.jpg	1208.jpg	8	15	0	u	1	0	765.70	0.67	0.59
bfer_125	0	1	01	1	75	3.630243e+02	2205.jpg	2101.jpg	51	52	0	u	2	0	658.42	0.68	0.66
bfer_125	0	1	01	1	76	3.660276e+02	2110.jpg	2118.jpg	43	77	1	u	4	1	783.11	0.86	0.33
bfer_125	0	1	01	1	77	3.710166e+02	1119.jpg	1109.jpg	18	8	1	i	1	0	690.11	0.56	0.67
bfer_125	0	1	01	1	78	3.740200e+02	1216.jpg	1205.jpg	10	14	1	u	1	1	1030.75	0.63	0.59
bfer_125	0	1	01	1	79	3.810278e+02	1201.jpg	1211.jpg	20	19	0	u	5	0	742.89	0.52	0.55
bfer_125	0	1	01	1	80	3.910224e+02	1113.jpg	1112.jpg	3	37	1	x	3	999	999000.00	0.79	0.24
bfer_125	0	1	01	1	81	4.000158e+02	1214.jpg	1119.jpg	16	18	0	u	1	0	570.91	0.57	0.56
bfer_125	0	1	01	1	82	4.040204e+02	1216.jpg	1214.jpg	10	16	1	i	1	0	710.37	0.63	0.57
bfer_125	0	1	01	1	83	4.110282e+02	1208.jpg	1205.jpg	15	14	1	u	1	1	854.54	0.59	0.59
bfer_125	0	1	01	1	84	4.200216e+02	2116.jpg	2204.jpg	55	49	1	u	2	1	717.16	0.61	0.70
bfer_125	0	1	01	1	85	4.230250e+02	1113.jpg	1114.jpg	3	38	1	u	3	1	1057.72	0.79	0.24
bfer_125	0	1	01	1	86	4.300162e+02	2202.jpg	2111.jpg	56	50	0	i	2	1	634.57	0.60	0.69
bfer_125	0	1	01	1	87	4.340207e+02	2101.jpg	2106.jpg	52	54	1	u	2	1	838.05	0.66	0.62
bfer_125	0	1	01	1	88	4.370240e+02	1202.jpg	1106.jpg	13	17	1	u	1	1	826.72	0.60	0.57
