subjectID	scanner	order	block	run	trial	onsettime	ImageLeft	ImageRight	bidIndexLeft	bidIndexRight	IsleftGo	Response	PairType	Outcome	RT	bidLeft	bidRight
bfer_129	0	1	02	1	1	2.018904e+00	1104.jpg	1110.jpg	15	11	1	u	1	1	1074.04	0.58	0.66
bfer_129	0	1	02	1	2	6.023402e+00	2110.jpg	2113.jpg	43	77	1	i	4	0	1093.54	0.84	0.22
bfer_129	0	1	02	1	3	9.026781e+00	2210.jpg	2214.jpg	61	62	0	i	6	1	1170.18	0.52	0.46
bfer_129	0	1	02	1	4	1.601789e+01	2209.jpg	2219.jpg	47	54	1	u	2	1	739.08	0.73	0.61
bfer_129	0	1	02	1	5	1.902134e+01	1208.jpg	1108.jpg	20	19	0	u	5	0	887.60	0.55	0.55
bfer_129	0	1	02	1	6	2.502807e+01	1204.jpg	1109.jpg	8	10	0	i	1	1	704.89	0.69	0.66
bfer_129	0	1	02	1	7	3.001701e+01	2204.jpg	2216.jpg	58	48	1	i	2	0	955.94	0.56	0.71
bfer_129	0	1	02	1	8	3.302030e+01	1117.jpg	1103.jpg	18	14	1	u	1	1	728.64	0.57	0.59
bfer_129	0	1	02	1	9	3.802588e+01	2218.jpg	2104.jpg	49	55	0	i	2	1	1027.06	0.68	0.60
bfer_129	0	1	02	1	10	4.101258e+01	1212.jpg	1203.jpg	12	9	1	u	1	1	824.37	0.66	0.67
bfer_129	0	1	02	1	11	4.701931e+01	2217.jpg	2207.jpg	56	52	0	i	2	1	737.64	0.59	0.64
bfer_129	0	1	02	1	12	5.302604e+01	2207.jpg	2216.jpg	52	48	1	u	2	1	1106.91	0.64	0.71
bfer_129	0	1	02	1	13	5.901611e+01	1218.jpg	1117.jpg	17	18	0	i	1	1	700.83	0.57	0.57
bfer_129	0	1	02	1	14	6.201953e+01	1204.jpg	1104.jpg	8	15	0	i	1	1	953.42	0.69	0.58
bfer_129	0	1	02	1	15	6.502291e+01	2109.jpg	2217.jpg	50	56	1	u	2	1	1030.06	0.67	0.59
bfer_129	0	1	02	1	16	6.802619e+01	1203.jpg	1113.jpg	9	7	0	u	1	0	1034.76	0.67	0.70
bfer_129	0	1	02	1	17	7.201416e+01	1117.jpg	1204.jpg	18	8	1	u	1	1	630.79	0.57	0.69
bfer_129	0	1	02	1	18	7.601846e+01	1212.jpg	1106.jpg	12	16	1	u	1	1	770.49	0.66	0.57
bfer_129	0	1	02	1	19	7.902188e+01	2209.jpg	2205.jpg	47	51	1	u	2	1	903.06	0.73	0.66
bfer_129	0	1	02	1	20	8.901646e+01	2215.jpg	2102.jpg	44	78	1	u	4	1	1052.49	0.78	0.22
bfer_129	0	1	02	1	21	1.000118e+02	1103.jpg	1115.jpg	14	13	0	u	1	0	969.10	0.59	0.62
bfer_129	0	1	02	1	22	1.060189e+02	1106.jpg	1117.jpg	16	18	0	i	1	1	658.07	0.57	0.57
bfer_129	0	1	02	1	23	1.110244e+02	2217.jpg	2103.jpg	56	53	0	i	2	1	916.55	0.59	0.64
bfer_129	0	1	02	1	24	1.150120e+02	1103.jpg	1113.jpg	14	7	0	u	1	0	776.92	0.59	0.70
bfer_129	0	1	02	1	25	1.210190e+02	2218.jpg	2209.jpg	49	47	0	i	2	1	849.94	0.68	0.73
bfer_129	0	1	02	1	26	1.310136e+02	1104.jpg	1106.jpg	15	16	1	u	1	1	791.35	0.58	0.57
bfer_129	0	1	02	1	27	1.340169e+02	1218.jpg	1115.jpg	17	13	0	i	1	1	972.07	0.57	0.62
bfer_129	0	1	02	1	28	1.370202e+02	1218.jpg	1113.jpg	17	7	0	i	1	1	1136.74	0.57	0.70
bfer_129	0	1	02	1	29	1.400236e+02	2109.jpg	2216.jpg	50	48	1	u	2	1	781.35	0.67	0.71
bfer_129	0	1	02	1	30	1.440281e+02	1210.jpg	1206.jpg	21	22	0	u	5	0	896.85	0.52	0.48
bfer_129	0	1	02	1	31	1.500182e+02	2216.jpg	2209.jpg	48	47	0	i	2	1	874.78	0.71	0.73
bfer_129	0	1	02	1	32	1.540226e+02	1215.jpg	1214.jpg	3	37	1	u	3	1	1062.33	0.80	0.22
bfer_129	0	1	02	1	33	1.620150e+02	1109.jpg	1203.jpg	10	9	1	u	1	1	797.93	0.66	0.67
bfer_129	0	1	02	1	34	1.670205e+02	1211.jpg	1102.jpg	4	38	1	u	3	1	1040.41	0.77	0.21
bfer_129	0	1	02	1	35	1.750125e+02	2204.jpg	2219.jpg	58	54	1	u	2	1	1104.48	0.56	0.61
bfer_129	0	1	02	1	36	1.820207e+02	1110.jpg	1109.jpg	11	10	0	i	1	1	696.30	0.66	0.66
bfer_129	0	1	02	1	37	1.850241e+02	2115.jpg	2103.jpg	57	53	0	i	2	1	1004.90	0.57	0.64
bfer_129	0	1	02	1	38	1.890116e+02	2115.jpg	2104.jpg	57	55	0	i	2	1	937.38	0.57	0.60
bfer_129	0	1	02	1	39	1.920153e+02	2205.jpg	2103.jpg	51	53	0	i	2	1	997.68	0.66	0.64
bfer_129	0	1	02	1	40	1.950185e+02	1108.jpg	1210.jpg	19	21	1	u	5	1	1154.41	0.55	0.52
bfer_129	0	1	02	1	41	2.000241e+02	2207.jpg	2115.jpg	52	57	1	u	2	1	1116.80	0.64	0.57
bfer_129	0	1	02	1	42	2.040118e+02	1110.jpg	1113.jpg	11	7	0	u	1	0	897.17	0.66	0.70
bfer_129	0	1	02	1	43	2.080165e+02	2218.jpg	2103.jpg	49	53	0	i	2	1	844.48	0.68	0.64
bfer_129	0	1	02	1	44	2.110198e+02	2109.jpg	2218.jpg	50	49	1	u	2	1	737.10	0.67	0.68
bfer_129	0	1	02	1	45	2.160255e+02	2218.jpg	2207.jpg	49	52	0	i	2	1	931.44	0.68	0.64
bfer_129	0	1	02	1	46	2.190288e+02	2109.jpg	2205.jpg	50	51	1	u	2	1	712.16	0.67	0.66
bfer_129	0	1	02	1	47	2.240178e+02	1218.jpg	1109.jpg	17	10	0	i	1	1	763.12	0.57	0.66
bfer_129	0	1	02	1	48	2.320267e+02	1204.jpg	1212.jpg	8	12	0	i	1	1	922.24	0.69	0.66
bfer_129	0	1	02	1	49	2.380169e+02	2113.jpg	2215.jpg	77	44	0	u	4	0	1100.10	0.22	0.78
bfer_129	0	1	02	1	50	2.470268e+02	1104.jpg	1218.jpg	15	17	1	u	1	1	666.12	0.58	0.57
bfer_129	0	1	02	1	51	2.590236e+02	1106.jpg	1109.jpg	16	10	0	i	1	1	949.33	0.57	0.66
bfer_129	0	1	02	1	52	2.620270e+02	2115.jpg	2204.jpg	57	58	0	i	2	1	1185.94	0.57	0.56
bfer_129	0	1	02	1	53	2.690182e+02	1218.jpg	1212.jpg	17	12	0	i	1	1	818.77	0.57	0.66
bfer_129	0	1	02	1	54	2.730227e+02	2209.jpg	2217.jpg	47	56	1	u	2	1	710.28	0.73	0.59
bfer_129	0	1	02	1	55	2.760260e+02	1208.jpg	1206.jpg	20	22	0	i	5	1	1210.94	0.55	0.48
bfer_129	0	1	02	1	56	2.790124e+02	1110.jpg	1117.jpg	11	18	0	i	1	1	848.50	0.66	0.57
bfer_129	0	1	02	1	57	2.830173e+02	2204.jpg	2205.jpg	58	51	1	i	2	0	1155.66	0.56	0.66
bfer_129	0	1	02	1	58	2.890240e+02	2115.jpg	2209.jpg	57	47	0	i	2	1	884.99	0.57	0.73
bfer_129	0	1	02	1	59	2.920274e+02	1204.jpg	1115.jpg	8	13	0	u	1	0	769.58	0.69	0.62
bfer_129	0	1	02	1	60	3.010207e+02	1115.jpg	1106.jpg	13	16	1	i	1	0	1224.27	0.62	0.57
bfer_129	0	1	02	1	61	3.040241e+02	2104.jpg	2219.jpg	55	54	1	u	2	1	988.85	0.60	0.61
bfer_129	0	1	02	1	62	3.090130e+02	2110.jpg	2102.jpg	43	78	1	u	4	1	1127.93	0.84	0.22
bfer_129	0	1	02	1	63	3.170220e+02	1104.jpg	1203.jpg	15	9	1	u	1	1	726.98	0.58	0.67
bfer_129	0	1	02	1	64	3.220276e+02	2205.jpg	2104.jpg	51	55	0	i	2	1	985.33	0.66	0.60
bfer_129	0	1	02	1	65	3.250143e+02	2103.jpg	2219.jpg	53	54	1	u	2	1	766.66	0.64	0.61
bfer_129	0	1	02	1	66	3.280177e+02	1215.jpg	1102.jpg	3	38	1	u	3	1	947.30	0.80	0.21
bfer_129	0	1	02	1	67	3.380133e+02	1212.jpg	1110.jpg	12	11	1	u	1	1	887.62	0.66	0.66
bfer_129	0	1	02	1	68	3.410155e+02	1113.jpg	1204.jpg	7	8	1	i	1	0	1021.40	0.70	0.69
bfer_129	0	1	02	1	69	3.440190e+02	1110.jpg	1115.jpg	11	13	0	u	1	0	1121.96	0.66	0.62
bfer_129	0	1	02	1	70	3.470223e+02	2217.jpg	2104.jpg	56	55	0	i	2	1	1046.67	0.59	0.60
bfer_129	0	1	02	1	71	3.510268e+02	1203.jpg	1115.jpg	9	13	0	u	1	0	1194.12	0.67	0.62
bfer_129	0	1	02	1	72	3.540135e+02	2104.jpg	2216.jpg	55	48	1	u	2	1	927.49	0.60	0.71
bfer_129	0	1	02	1	73	3.570169e+02	2217.jpg	2204.jpg	56	58	0	i	2	1	1036.08	0.59	0.56
bfer_129	0	1	02	1	74	3.600202e+02	2214.jpg	2106.jpg	62	60	1	u	6	1	776.74	0.46	0.53
bfer_129	0	1	02	1	75	3.630236e+02	2219.jpg	2207.jpg	54	52	0	i	2	1	741.38	0.61	0.64
bfer_129	0	1	02	1	76	3.660270e+02	2202.jpg	2210.jpg	59	61	1	i	6	0	1249.99	0.56	0.52
bfer_129	0	1	02	1	77	3.710159e+02	2207.jpg	2205.jpg	52	51	1	u	2	1	909.06	0.64	0.66
bfer_129	0	1	02	1	78	3.740192e+02	1212.jpg	1103.jpg	12	14	1	i	1	0	905.77	0.66	0.59
bfer_129	0	1	02	1	79	3.810271e+02	2106.jpg	2202.jpg	60	59	0	u	6	0	1025.84	0.53	0.56
bfer_129	0	1	02	1	80	3.910216e+02	1211.jpg	1214.jpg	4	37	1	u	3	1	967.35	0.77	0.22
bfer_129	0	1	02	1	81	4.000150e+02	1203.jpg	1117.jpg	9	18	0	i	1	1	717.93	0.67	0.57
bfer_129	0	1	02	1	82	4.040194e+02	1106.jpg	1113.jpg	16	7	0	u	1	0	1161.50	0.57	0.70
bfer_129	0	1	02	1	83	4.110274e+02	2109.jpg	2219.jpg	50	54	1	u	2	1	905.55	0.67	0.61
bfer_129	0	1	02	1	84	4.200208e+02	1104.jpg	1103.jpg	15	14	1	i	1	0	1160.15	0.58	0.59
bfer_129	0	1	02	1	85	4.230241e+02	1109.jpg	1103.jpg	10	14	1	u	1	1	772.86	0.66	0.59
bfer_129	0	1	02	1	86	4.300153e+02	2109.jpg	2115.jpg	50	57	1	u	2	1	765.66	0.67	0.57
bfer_129	0	1	02	1	87	4.340198e+02	2216.jpg	2103.jpg	48	53	0	x	2	999	999000.00	0.71	0.64
bfer_129	0	1	02	1	88	4.370232e+02	2204.jpg	2218.jpg	58	49	1	u	2	1	893.79	0.56	0.68
