subjectID	scanner	order	block	run	trial	onsettime	ImageLeft	ImageRight	bidIndexLeft	bidIndexRight	IsleftGo	Response	PairType	Outcome	RT	bidLeft	bidRight
bfer_146	0	2	02	1	1	2.018623e+00	1209.jpg	1216.jpg	16	15	1	x	1	999	999000.00	0.58	0.59
bfer_146	0	2	02	1	2	6.023377e+00	2202.jpg	2208.jpg	49	50	1	u	2	1	355.02	0.67	0.66
bfer_146	0	2	02	1	3	9.026767e+00	2206.jpg	2210.jpg	53	56	0	i	2	1	423.63	0.64	0.58
bfer_146	0	2	02	1	4	1.601764e+01	1210.jpg	1216.jpg	8	15	1	u	1	1	296.77	0.74	0.59
bfer_146	0	2	02	1	5	1.902127e+01	1210.jpg	1217.jpg	8	18	1	i	1	0	333.13	0.74	0.50
bfer_146	0	2	02	1	6	2.502808e+01	2112.jpg	2119.jpg	62	61	0	u	6	0	494.31	0.47	0.48
bfer_146	0	2	02	1	7	3.003522e+01	2209.jpg	2206.jpg	51	53	1	i	2	0	447.17	0.65	0.64
bfer_146	0	2	02	1	8	3.302038e+01	2218.jpg	2203.jpg	48	55	1	u	2	1	294.02	0.69	0.59
bfer_146	0	2	02	1	9	3.802594e+01	1201.jpg	1113.jpg	4	37	1	u	3	1	560.46	0.77	0.22
bfer_146	0	2	02	1	10	4.102932e+01	1207.jpg	1113.jpg	3	37	1	u	3	1	381.07	0.79	0.22
bfer_146	0	2	02	1	11	4.701946e+01	1206.jpg	1216.jpg	17	15	1	u	1	1	414.95	0.53	0.59
bfer_146	0	2	02	1	12	5.302610e+01	2208.jpg	2218.jpg	50	48	0	u	2	0	496.29	0.66	0.69
bfer_146	0	2	02	1	13	5.903295e+01	2204.jpg	2117.jpg	44	78	1	u	4	1	521.46	0.81	0.22
bfer_146	0	2	02	1	14	6.201961e+01	1117.jpg	1201.jpg	38	4	0	i	3	1	566.79	0.20	0.77
bfer_146	0	2	02	1	15	6.502291e+01	1211.jpg	1217.jpg	9	18	1	u	1	1	387.50	0.74	0.50
bfer_146	0	2	02	1	16	6.802636e+01	1212.jpg	1204.jpg	11	7	1	i	1	0	288.04	0.70	0.74
bfer_146	0	2	02	1	17	7.203076e+01	2218.jpg	2213.jpg	48	52	1	u	2	1	483.63	0.69	0.64
bfer_146	0	2	02	1	18	7.601835e+01	2208.jpg	2216.jpg	50	54	0	i	2	1	1328.05	0.66	0.62
bfer_146	0	2	02	1	19	7.902195e+01	2216.jpg	2206.jpg	54	53	1	i	2	0	1164.45	0.62	0.64
bfer_146	0	2	02	1	20	8.903324e+01	2213.jpg	2210.jpg	52	56	0	u	2	0	345.15	0.64	0.58
bfer_146	0	2	02	1	21	1.000288e+02	2212.jpg	2203.jpg	57	55	1	u	2	1	645.57	0.56	0.59
bfer_146	0	2	02	1	22	1.060191e+02	1211.jpg	1205.jpg	9	12	1	u	1	1	639.32	0.74	0.68
bfer_146	0	2	02	1	23	1.110246e+02	1215.jpg	1216.jpg	14	15	1	i	1	0	489.79	0.66	0.59
bfer_146	0	2	02	1	24	1.150290e+02	1210.jpg	1202.jpg	8	13	1	u	1	1	525.39	0.74	0.66
bfer_146	0	2	02	1	25	1.210191e+02	2219.jpg	2210.jpg	47	56	0	u	2	0	295.33	0.69	0.58
bfer_146	0	2	02	1	26	1.310304e+02	1217.jpg	1215.jpg	18	14	0	i	1	1	340.03	0.50	0.66
bfer_146	0	2	02	1	27	1.340337e+02	1214.jpg	1215.jpg	10	14	0	u	1	0	312.68	0.72	0.66
bfer_146	0	2	02	1	28	1.370204e+02	1202.jpg	1212.jpg	13	11	0	i	1	1	333.99	0.66	0.70
bfer_146	0	2	02	1	29	1.400238e+02	1205.jpg	1212.jpg	12	11	0	u	1	0	266.62	0.68	0.70
bfer_146	0	2	02	1	30	1.440282e+02	2214.jpg	2104.jpg	59	60	0	u	6	0	382.18	0.52	0.52
bfer_146	0	2	02	1	31	1.500180e+02	2202.jpg	2213.jpg	49	52	1	u	2	1	256.40	0.67	0.64
bfer_146	0	2	02	1	32	1.540228e+02	1214.jpg	1210.jpg	10	8	0	u	1	0	251.59	0.72	0.74
bfer_146	0	2	02	1	33	1.620318e+02	2208.jpg	2210.jpg	50	56	0	i	2	1	418.55	0.66	0.58
bfer_146	0	2	02	1	34	1.670207e+02	2119.jpg	2214.jpg	61	59	1	u	6	1	277.73	0.48	0.52
bfer_146	0	2	02	1	35	1.750298e+02	1203.jpg	1111.jpg	20	22	1	i	5	0	284.60	0.48	0.46
bfer_146	0	2	02	1	36	1.820208e+02	2212.jpg	2219.jpg	57	47	1	u	2	1	373.58	0.56	0.69
bfer_146	0	2	02	1	37	1.850243e+02	1111.jpg	1112.jpg	22	21	0	u	5	0	338.12	0.46	0.47
bfer_146	0	2	02	1	38	1.890287e+02	1202.jpg	1215.jpg	13	14	0	i	1	1	501.72	0.66	0.66
bfer_146	0	2	02	1	39	1.920321e+02	1211.jpg	1216.jpg	9	15	1	u	1	1	274.33	0.74	0.59
bfer_146	0	2	02	1	40	1.950185e+02	1212.jpg	1216.jpg	11	15	1	i	1	0	399.85	0.70	0.59
bfer_146	0	2	02	1	41	2.000243e+02	2206.jpg	2212.jpg	53	57	0	u	2	0	330.07	0.64	0.56
bfer_146	0	2	02	1	42	2.040289e+02	1206.jpg	1204.jpg	17	7	1	u	1	1	413.50	0.53	0.74
bfer_146	0	2	02	1	43	2.080334e+02	2213.jpg	2209.jpg	52	51	0	i	2	1	457.01	0.64	0.65
bfer_146	0	2	02	1	44	2.110201e+02	1215.jpg	1204.jpg	14	7	1	i	1	0	374.33	0.66	0.74
bfer_146	0	2	02	1	45	2.160257e+02	1205.jpg	1206.jpg	12	17	0	i	1	1	584.74	0.68	0.53
bfer_146	0	2	02	1	46	2.190290e+02	2219.jpg	2209.jpg	47	51	0	u	2	0	421.37	0.69	0.65
bfer_146	0	2	02	1	47	2.240178e+02	1202.jpg	1209.jpg	13	16	0	i	1	1	304.58	0.66	0.58
bfer_146	0	2	02	1	48	2.320269e+02	2117.jpg	2201.jpg	78	43	0	u	4	0	303.48	0.22	0.81
bfer_146	0	2	02	1	49	2.380168e+02	2219.jpg	2202.jpg	47	49	0	i	2	1	313.60	0.69	0.67
bfer_146	0	2	02	1	50	2.470271e+02	2203.jpg	2210.jpg	55	56	0	u	2	0	319.34	0.59	0.58
bfer_146	0	2	02	1	51	2.590239e+02	2110.jpg	2210.jpg	58	56	0	i	2	1	402.45	0.54	0.58
bfer_146	0	2	02	1	52	2.620273e+02	1202.jpg	1206.jpg	13	17	0	u	1	0	559.14	0.66	0.53
bfer_146	0	2	02	1	53	2.690182e+02	2203.jpg	2209.jpg	55	51	0	i	2	1	328.16	0.59	0.65
bfer_146	0	2	02	1	54	2.730230e+02	1217.jpg	1209.jpg	18	16	0	u	1	0	651.43	0.50	0.58
bfer_146	0	2	02	1	55	2.760263e+02	1209.jpg	1205.jpg	16	12	1	i	1	0	504.07	0.58	0.68
bfer_146	0	2	02	1	56	2.790297e+02	1214.jpg	1212.jpg	10	11	0	u	1	0	732.70	0.72	0.70
bfer_146	0	2	02	1	57	2.830173e+02	2209.jpg	2208.jpg	51	50	1	i	2	0	585.14	0.65	0.66
bfer_146	0	2	02	1	58	2.890242e+02	1211.jpg	1202.jpg	9	13	1	u	1	1	450.17	0.74	0.66
bfer_146	0	2	02	1	59	2.920276e+02	1107.jpg	1203.jpg	19	20	0	u	5	0	374.81	0.49	0.48
bfer_146	0	2	02	1	60	3.010210e+02	2216.jpg	2110.jpg	54	58	1	i	2	0	421.42	0.62	0.54
bfer_146	0	2	02	1	61	3.040244e+02	2110.jpg	2212.jpg	58	57	0	u	2	0	386.01	0.54	0.56
bfer_146	0	2	02	1	62	3.090300e+02	1210.jpg	1205.jpg	8	12	1	i	1	0	700.35	0.74	0.68
bfer_146	0	2	02	1	63	3.170223e+02	1117.jpg	1207.jpg	38	3	0	i	3	1	268.11	0.20	0.79
bfer_146	0	2	02	1	64	3.220279e+02	2216.jpg	2213.jpg	54	52	1	i	2	0	406.50	0.62	0.64
bfer_146	0	2	02	1	65	3.250313e+02	1217.jpg	1212.jpg	18	11	0	i	1	1	435.15	0.50	0.70
bfer_146	0	2	02	1	66	3.280177e+02	2206.jpg	2202.jpg	53	49	0	i	2	1	280.72	0.64	0.67
bfer_146	0	2	02	1	67	3.380292e+02	1214.jpg	1211.jpg	10	9	0	i	1	1	381.15	0.72	0.74
bfer_146	0	2	02	1	68	3.410326e+02	1204.jpg	1209.jpg	7	16	0	i	1	1	321.81	0.74	0.58
bfer_146	0	2	02	1	69	3.440193e+02	2203.jpg	2202.jpg	55	49	0	u	2	0	463.12	0.59	0.67
bfer_146	0	2	02	1	70	3.470226e+02	2206.jpg	2218.jpg	53	48	0	i	2	1	299.77	0.64	0.69
bfer_146	0	2	02	1	71	3.510271e+02	2201.jpg	2118.jpg	43	77	1	i	4	0	279.33	0.81	0.23
bfer_146	0	2	02	1	72	3.540304e+02	2112.jpg	2104.jpg	62	60	0	u	6	0	323.97	0.47	0.52
bfer_146	0	2	02	1	73	3.570339e+02	1210.jpg	1204.jpg	8	7	1	u	1	1	304.51	0.74	0.74
bfer_146	0	2	02	1	74	3.600205e+02	2216.jpg	2203.jpg	54	55	1	u	2	1	589.85	0.62	0.59
bfer_146	0	2	02	1	75	3.630239e+02	2219.jpg	2216.jpg	47	54	0	i	2	1	578.51	0.69	0.62
bfer_146	0	2	02	1	76	3.660273e+02	1215.jpg	1205.jpg	14	12	1	i	1	0	703.08	0.66	0.68
bfer_146	0	2	02	1	77	3.710329e+02	1112.jpg	1107.jpg	21	19	1	u	5	1	825.49	0.47	0.49
bfer_146	0	2	02	1	78	3.740195e+02	1211.jpg	1204.jpg	9	7	1	u	1	1	934.86	0.74	0.74
bfer_146	0	2	02	1	79	3.810274e+02	1206.jpg	1217.jpg	17	18	1	u	1	1	439.03	0.53	0.50
bfer_146	0	2	02	1	80	3.910220e+02	2219.jpg	2218.jpg	47	48	0	i	2	1	340.43	0.69	0.69
bfer_146	0	2	02	1	81	4.000321e+02	2212.jpg	2213.jpg	57	52	1	u	2	1	330.31	0.56	0.64
bfer_146	0	2	02	1	82	4.040199e+02	2110.jpg	2202.jpg	58	49	0	i	2	1	502.51	0.54	0.67
bfer_146	0	2	02	1	83	4.110278e+02	1214.jpg	1209.jpg	10	16	0	u	1	0	246.62	0.72	0.58
bfer_146	0	2	02	1	84	4.200212e+02	2212.jpg	2208.jpg	57	50	1	i	2	0	309.24	0.56	0.66
bfer_146	0	2	02	1	85	4.230245e+02	2204.jpg	2118.jpg	44	77	1	i	4	0	345.91	0.81	0.23
bfer_146	0	2	02	1	86	4.300324e+02	1206.jpg	1214.jpg	17	10	1	u	1	1	538.02	0.53	0.72
bfer_146	0	2	02	1	87	4.340202e+02	2110.jpg	2218.jpg	58	48	0	i	2	1	1070.20	0.54	0.69
bfer_146	0	2	02	1	88	4.370235e+02	2209.jpg	2110.jpg	51	58	1	i	2	0	594.84	0.65	0.54
