subjectID	scanner	order	block	run	trial	onsettime	ImageLeft	ImageRight	bidIndexLeft	bidIndexRight	IsleftGo	Response	PairType	Outcome	RT	bidLeft	bidRight
bfer_168	0	2	02	1	1	2.018837e+00	2215.jpg	2110.jpg	47	57	0	u	2	0	1000.85	0.73	0.58
bfer_168	0	2	02	1	2	5.022186e+00	1211.jpg	1214.jpg	11	10	1	i	1	0	653.50	0.63	0.65
bfer_168	0	2	02	1	3	9.026699e+00	1212.jpg	1121.jpg	13	8	0	u	1	0	704.97	0.62	0.70
bfer_168	0	2	02	1	4	1.203003e+01	2110.jpg	2206.jpg	57	55	1	i	2	0	973.63	0.58	0.61
bfer_168	0	2	02	1	5	1.802006e+01	1103.jpg	1213.jpg	15	14	0	i	1	1	639.62	0.61	0.62
bfer_168	0	2	02	1	6	2.302568e+01	1215.jpg	1207.jpg	7	9	0	i	1	1	713.98	0.70	0.68
bfer_168	0	2	02	1	7	2.703018e+01	2114.jpg	2115.jpg	60	62	1	u	6	1	773.48	0.54	0.53
bfer_168	0	2	02	1	8	3.201925e+01	2121.jpg	2219.jpg	53	49	0	i	2	1	800.42	0.66	0.72
bfer_168	0	2	02	1	9	3.802589e+01	2110.jpg	2121.jpg	57	53	1	i	2	0	873.76	0.58	0.66
bfer_168	0	2	02	1	10	4.102922e+01	1208.jpg	1213.jpg	12	14	0	i	1	1	790.44	0.62	0.62
bfer_168	0	2	02	1	11	4.401601e+01	1121.jpg	1215.jpg	8	7	1	i	1	0	491.65	0.70	0.70
bfer_168	0	2	02	1	12	4.802042e+01	1211.jpg	1103.jpg	11	15	1	u	1	1	599.25	0.63	0.61
bfer_168	0	2	02	1	13	5.302600e+01	1216.jpg	1112.jpg	4	38	1	u	3	1	881.67	0.78	0.19
bfer_168	0	2	02	1	14	5.602942e+01	2216.jpg	2219.jpg	52	49	0	u	2	0	1446.24	0.67	0.72
bfer_168	0	2	02	1	15	5.901616e+01	1207.jpg	1212.jpg	9	13	1	u	1	1	811.51	0.68	0.62
bfer_168	0	2	02	1	16	6.302057e+01	1103.jpg	1205.jpg	15	17	0	i	1	1	655.09	0.61	0.57
bfer_168	0	2	02	1	17	7.501740e+01	1109.jpg	1211.jpg	18	11	0	i	1	1	530.26	0.56	0.63
bfer_168	0	2	02	1	18	8.302631e+01	2208.jpg	2204.jpg	51	50	1	u	2	1	497.36	0.69	0.71
bfer_168	0	2	02	1	19	8.901647e+01	2121.jpg	2207.jpg	53	54	0	i	2	1	755.19	0.66	0.62
bfer_168	0	2	02	1	20	9.201981e+01	1209.jpg	1208.jpg	16	12	1	i	1	0	607.86	0.59	0.62
bfer_168	0	2	02	1	21	9.602429e+01	1209.jpg	1103.jpg	16	15	1	u	1	1	603.37	0.59	0.61
bfer_168	0	2	02	1	22	1.020310e+02	1121.jpg	1214.jpg	8	10	1	i	1	0	532.71	0.70	0.65
bfer_168	0	2	02	1	23	1.050177e+02	2204.jpg	2211.jpg	50	56	0	i	2	1	857.92	0.71	0.59
bfer_168	0	2	02	1	24	1.080211e+02	2214.jpg	2206.jpg	48	55	1	i	2	0	550.60	0.72	0.61
bfer_168	0	2	02	1	25	1.110244e+02	2120.jpg	2205.jpg	77	44	0	i	4	1	867.24	0.24	0.78
bfer_168	0	2	02	1	26	1.180153e+02	1217.jpg	1218.jpg	19	21	0	u	5	0	1100.39	0.56	0.49
bfer_168	0	2	02	1	27	1.210189e+02	1207.jpg	1103.jpg	9	15	1	i	1	0	1088.75	0.68	0.61
bfer_168	0	2	02	1	28	1.240224e+02	2215.jpg	2214.jpg	47	48	0	i	2	1	645.32	0.73	0.72
bfer_168	0	2	02	1	29	1.290280e+02	2216.jpg	2110.jpg	52	57	0	i	2	1	743.71	0.67	0.58
bfer_168	0	2	02	1	30	1.320314e+02	1109.jpg	1207.jpg	18	9	0	i	1	1	540.29	0.56	0.68
bfer_168	0	2	02	1	31	1.360192e+02	2214.jpg	2216.jpg	48	52	1	u	2	1	376.47	0.72	0.67
bfer_168	0	2	02	1	32	1.420259e+02	1213.jpg	1109.jpg	14	18	1	u	1	1	793.76	0.62	0.56
bfer_168	0	2	02	1	33	1.450293e+02	1211.jpg	1212.jpg	11	13	1	i	1	0	470.39	0.63	0.62
bfer_168	0	2	02	1	34	1.520203e+02	1211.jpg	1215.jpg	11	7	1	u	1	1	447.33	0.63	0.70
bfer_168	0	2	02	1	35	1.570260e+02	2204.jpg	2110.jpg	50	57	0	u	2	0	801.64	0.71	0.58
bfer_168	0	2	02	1	36	1.610136e+02	1213.jpg	1214.jpg	14	10	1	u	1	1	830.05	0.62	0.65
bfer_168	0	2	02	1	37	1.640171e+02	2219.jpg	2206.jpg	49	55	1	u	2	1	1218.53	0.72	0.61
bfer_168	0	2	02	1	38	1.670206e+02	1208.jpg	1211.jpg	12	11	0	i	1	1	543.07	0.62	0.63
bfer_168	0	2	02	1	39	1.770148e+02	2211.jpg	2206.jpg	56	55	1	u	2	1	1212.85	0.59	0.61
bfer_168	0	2	02	1	40	1.880275e+02	1109.jpg	1205.jpg	18	17	0	i	1	1	1104.20	0.56	0.57
bfer_168	0	2	02	1	41	1.930164e+02	2216.jpg	2211.jpg	52	56	0	i	2	1	819.31	0.67	0.59
bfer_168	0	2	02	1	42	2.020265e+02	1107.jpg	1216.jpg	37	4	0	i	3	1	1281.17	0.24	0.78
bfer_168	0	2	02	1	43	2.050299e+02	1208.jpg	1121.jpg	12	8	0	i	1	1	1301.76	0.62	0.70
bfer_168	0	2	02	1	44	2.100187e+02	2211.jpg	2121.jpg	56	53	1	i	2	0	1040.92	0.59	0.66
bfer_168	0	2	02	1	45	2.130221e+02	1215.jpg	1205.jpg	7	17	0	i	1	1	709.53	0.70	0.57
bfer_168	0	2	02	1	46	2.220157e+02	1213.jpg	1215.jpg	14	7	1	i	1	0	1003.99	0.62	0.70
bfer_168	0	2	02	1	47	2.320269e+02	2207.jpg	2103.jpg	54	58	1	u	2	1	1184.81	0.62	0.56
bfer_168	0	2	02	1	48	2.350302e+02	2215.jpg	2207.jpg	47	54	0	i	2	1	645.42	0.73	0.62
bfer_168	0	2	02	1	49	2.420213e+02	1212.jpg	1205.jpg	13	17	0	u	1	0	622.40	0.62	0.57
bfer_168	0	2	02	1	50	2.450247e+02	2208.jpg	2206.jpg	51	55	1	i	2	0	611.00	0.69	0.61
bfer_168	0	2	02	1	51	2.480281e+02	2216.jpg	2208.jpg	52	51	0	i	2	1	695.62	0.67	0.69
bfer_168	0	2	02	1	52	2.510146e+02	2215.jpg	2211.jpg	47	56	0	i	2	1	477.11	0.73	0.59
bfer_168	0	2	02	1	53	2.540182e+02	1207.jpg	1214.jpg	9	10	1	i	1	0	529.51	0.68	0.65
bfer_168	0	2	02	1	54	2.580226e+02	1212.jpg	1209.jpg	13	16	0	i	1	1	541.07	0.62	0.59
bfer_168	0	2	02	1	55	2.610260e+02	1202.jpg	1107.jpg	3	37	1	u	3	1	865.72	0.79	0.24
bfer_168	0	2	02	1	56	2.680172e+02	1208.jpg	1205.jpg	12	17	0	i	1	1	946.52	0.62	0.57
bfer_168	0	2	02	1	57	2.760261e+02	1116.jpg	1117.jpg	20	22	1	i	5	0	465.53	0.53	0.48
bfer_168	0	2	02	1	58	2.830174e+02	2215.jpg	2208.jpg	47	51	0	i	2	1	674.22	0.73	0.69
bfer_168	0	2	02	1	59	2.920274e+02	2211.jpg	2103.jpg	56	58	1	i	2	0	1072.29	0.59	0.56
bfer_168	0	2	02	1	60	3.010208e+02	1117.jpg	1218.jpg	22	21	0	i	5	1	1158.92	0.48	0.49
bfer_168	0	2	02	1	61	3.060265e+02	1213.jpg	1212.jpg	14	13	1	u	1	1	841.21	0.62	0.62
bfer_168	0	2	02	1	62	3.090298e+02	2217.jpg	2209.jpg	59	61	0	i	6	1	861.83	0.55	0.53
bfer_168	0	2	02	1	63	3.120165e+02	2214.jpg	2121.jpg	48	53	1	u	2	1	723.14	0.72	0.66
bfer_168	0	2	02	1	64	3.150198e+02	2114.jpg	2217.jpg	60	59	1	i	6	0	1447.85	0.54	0.55
bfer_168	0	2	02	1	65	3.190243e+02	1208.jpg	1207.jpg	12	9	0	u	1	0	547.41	0.62	0.68
bfer_168	0	2	02	1	66	3.260153e+02	2113.jpg	2205.jpg	78	44	0	i	4	1	612.42	0.21	0.78
bfer_168	0	2	02	1	67	3.290188e+02	2219.jpg	2215.jpg	49	47	1	u	2	1	664.82	0.72	0.73
bfer_168	0	2	02	1	68	3.330235e+02	2113.jpg	2213.jpg	78	43	0	i	4	1	556.19	0.21	0.79
bfer_168	0	2	02	1	69	3.410157e+02	2219.jpg	2103.jpg	49	58	1	x	2	999	999000.00	0.72	0.56
bfer_168	0	2	02	1	70	3.440191e+02	2219.jpg	2204.jpg	49	50	1	u	2	1	648.58	0.72	0.71
bfer_168	0	2	02	1	71	3.480235e+02	2214.jpg	2204.jpg	48	50	1	i	2	0	436.19	0.72	0.71
bfer_168	0	2	02	1	72	3.540302e+02	1103.jpg	1121.jpg	15	8	0	i	1	1	597.44	0.61	0.70
bfer_168	0	2	02	1	73	3.600202e+02	1209.jpg	1214.jpg	16	10	1	i	1	0	671.42	0.59	0.65
bfer_168	0	2	02	1	74	3.700146e+02	1215.jpg	1209.jpg	7	16	0	i	1	1	789.04	0.70	0.59
bfer_168	0	2	02	1	75	3.740194e+02	2115.jpg	2209.jpg	62	61	0	i	6	1	1304.29	0.53	0.53
bfer_168	0	2	02	1	76	3.790249e+02	1214.jpg	1205.jpg	10	17	0	i	1	1	1066.75	0.65	0.57
bfer_168	0	2	02	1	77	3.850148e+02	2208.jpg	2121.jpg	51	53	1	i	2	0	1212.91	0.69	0.66
bfer_168	0	2	02	1	78	3.880184e+02	1112.jpg	1202.jpg	38	3	0	i	3	1	721.30	0.19	0.79
bfer_168	0	2	02	1	79	3.910217e+02	2103.jpg	2208.jpg	58	51	0	i	2	1	717.99	0.56	0.69
bfer_168	0	2	02	1	80	3.950262e+02	1109.jpg	1121.jpg	18	8	0	i	1	1	1137.43	0.56	0.70
bfer_168	0	2	02	1	81	4.000152e+02	2120.jpg	2213.jpg	77	43	0	i	4	1	964.50	0.24	0.79
bfer_168	0	2	02	1	82	4.030185e+02	1209.jpg	1109.jpg	16	18	1	i	1	0	729.13	0.59	0.56
bfer_168	0	2	02	1	83	4.060219e+02	2103.jpg	2214.jpg	58	48	0	u	2	0	469.79	0.56	0.72
bfer_168	0	2	02	1	84	4.100264e+02	2110.jpg	2103.jpg	57	58	1	i	2	0	521.28	0.58	0.56
bfer_168	0	2	02	1	85	4.200209e+02	1116.jpg	1217.jpg	20	19	1	i	5	0	1302.75	0.53	0.56
bfer_168	0	2	02	1	86	4.280299e+02	2207.jpg	2206.jpg	54	55	1	u	2	1	517.73	0.62	0.61
bfer_168	0	2	02	1	87	4.340200e+02	2207.jpg	2204.jpg	54	50	1	i	2	0	447.71	0.62	0.71
bfer_168	0	2	02	1	88	4.370233e+02	2207.jpg	2216.jpg	54	52	1	u	2	1	428.32	0.62	0.67
