subjectID	scanner	order	block	run	trial	onsettime	ImageLeft	ImageRight	bidIndexLeft	bidIndexRight	IsleftGo	Response	PairType	Outcome	RT	bidLeft	bidRight
bfer_166	0	2	01	1	1	2.018890e+00	1116.jpg	1120.jpg	10	16	0	u	1	0	831.78	0.66	0.57
bfer_166	0	2	01	1	2	6.023388e+00	1212.jpg	1214.jpg	17	7	1	i	1	0	667.28	0.57	0.67
bfer_166	0	2	01	1	3	9.026709e+00	2210.jpg	2119.jpg	47	57	0	u	2	0	759.95	0.63	0.55
bfer_166	0	2	01	1	4	1.601793e+01	2109.jpg	2103.jpg	60	59	1	u	6	1	768.73	0.53	0.54
bfer_166	0	2	01	1	5	1.902131e+01	1113.jpg	1210.jpg	3	37	1	u	3	1	701.37	0.69	0.24
bfer_166	0	2	01	1	6	2.502806e+01	1110.jpg	1212.jpg	18	17	0	u	1	0	726.61	0.57	0.57
bfer_166	0	2	01	1	7	3.001702e+01	2102.jpg	2208.jpg	56	52	1	i	2	0	841.64	0.56	0.60
bfer_166	0	2	01	1	8	3.302033e+01	2102.jpg	2210.jpg	56	47	1	u	2	1	742.34	0.56	0.63
bfer_166	0	2	01	1	9	3.802596e+01	2121.jpg	2106.jpg	54	50	1	i	2	0	864.71	0.59	0.62
bfer_166	0	2	01	1	10	4.102935e+01	1210.jpg	1206.jpg	37	4	0	i	3	1	765.32	0.24	0.69
bfer_166	0	2	01	1	11	4.701943e+01	1102.jpg	1212.jpg	13	17	0	u	1	0	679.23	0.61	0.57
bfer_166	0	2	01	1	12	5.302614e+01	2219.jpg	2203.jpg	43	78	1	u	4	1	792.53	0.78	0.23
bfer_166	0	2	01	1	13	5.901588e+01	2106.jpg	2119.jpg	50	57	0	u	2	0	682.79	0.62	0.55
bfer_166	0	2	01	1	14	6.201949e+01	1202.jpg	1110.jpg	9	18	1	u	1	1	871.18	0.67	0.57
bfer_166	0	2	01	1	15	6.502292e+01	1206.jpg	1111.jpg	4	38	1	u	3	1	675.74	0.69	0.23
bfer_166	0	2	01	1	16	6.802626e+01	1212.jpg	1106.jpg	17	12	1	i	1	0	600.41	0.57	0.63
bfer_166	0	2	01	1	17	7.203075e+01	1103.jpg	1116.jpg	8	10	1	i	1	0	779.92	0.67	0.66
bfer_166	0	2	01	1	18	7.601867e+01	2113.jpg	2215.jpg	55	49	0	u	2	0	840.00	0.58	0.62
bfer_166	0	2	01	1	19	7.902190e+01	1102.jpg	1104.jpg	13	14	0	u	1	0	724.76	0.61	0.61
bfer_166	0	2	01	1	20	8.901621e+01	1202.jpg	1102.jpg	9	13	1	u	1	1	858.48	0.67	0.61
bfer_166	0	2	01	1	21	1.000289e+02	2113.jpg	2102.jpg	55	56	0	u	2	0	669.72	0.58	0.56
bfer_166	0	2	01	1	22	1.060189e+02	2115.jpg	2109.jpg	62	60	0	i	6	1	927.71	0.47	0.53
bfer_166	0	2	01	1	23	1.110245e+02	2106.jpg	2211.jpg	50	48	0	i	2	1	898.18	0.62	0.62
bfer_166	0	2	01	1	24	1.150291e+02	2211.jpg	2107.jpg	48	58	1	u	2	1	717.59	0.62	0.55
bfer_166	0	2	01	1	25	1.210190e+02	2112.jpg	2107.jpg	51	58	1	i	2	0	831.62	0.60	0.55
bfer_166	0	2	01	1	26	1.310304e+02	1102.jpg	1218.jpg	13	11	0	i	1	1	692.27	0.61	0.66
bfer_166	0	2	01	1	27	1.340169e+02	1104.jpg	1110.jpg	14	18	1	i	1	0	665.73	0.61	0.57
bfer_166	0	2	01	1	28	1.370204e+02	1212.jpg	1219.jpg	17	15	1	i	1	0	590.30	0.57	0.58
bfer_166	0	2	01	1	29	1.400237e+02	2112.jpg	2208.jpg	51	52	1	i	2	0	722.96	0.60	0.60
bfer_166	0	2	01	1	30	1.440282e+02	1120.jpg	1110.jpg	16	18	1	i	1	0	686.46	0.57	0.57
bfer_166	0	2	01	1	31	1.500182e+02	1208.jpg	1117.jpg	20	22	1	u	5	1	952.44	0.53	0.52
bfer_166	0	2	01	1	32	1.540228e+02	2216.jpg	2119.jpg	53	57	0	u	2	0	787.88	0.60	0.55
bfer_166	0	2	01	1	33	1.620318e+02	2112.jpg	2113.jpg	51	55	1	i	2	0	602.87	0.60	0.58
bfer_166	0	2	01	1	34	1.670207e+02	1215.jpg	1112.jpg	21	19	1	u	5	1	997.94	0.52	0.55
bfer_166	0	2	01	1	35	1.750297e+02	2121.jpg	2216.jpg	54	53	1	i	2	0	637.00	0.59	0.60
bfer_166	0	2	01	1	36	1.820209e+02	2210.jpg	2215.jpg	47	49	0	i	2	1	757.78	0.63	0.62
bfer_166	0	2	01	1	37	1.850242e+02	1113.jpg	1111.jpg	3	38	1	u	3	1	914.46	0.69	0.23
bfer_166	0	2	01	1	38	1.890287e+02	2216.jpg	2215.jpg	53	49	0	i	2	1	1310.01	0.60	0.62
bfer_166	0	2	01	1	39	1.920151e+02	2210.jpg	2211.jpg	47	48	0	i	2	1	819.60	0.63	0.62
bfer_166	0	2	01	1	40	1.950187e+02	2219.jpg	2117.jpg	43	77	1	u	4	1	751.94	0.78	0.28
bfer_166	0	2	01	1	41	2.000244e+02	1106.jpg	1202.jpg	12	9	0	i	1	1	682.28	0.63	0.67
bfer_166	0	2	01	1	42	2.040288e+02	1103.jpg	1110.jpg	8	18	1	i	1	0	645.82	0.67	0.57
bfer_166	0	2	01	1	43	2.080166e+02	1112.jpg	1208.jpg	19	20	0	i	5	1	706.05	0.55	0.53
bfer_166	0	2	01	1	44	2.110201e+02	1219.jpg	1218.jpg	15	11	0	i	1	1	526.57	0.58	0.66
bfer_166	0	2	01	1	45	2.160256e+02	2121.jpg	2210.jpg	54	47	1	i	2	0	489.05	0.59	0.63
bfer_166	0	2	01	1	46	2.190290e+02	2119.jpg	2113.jpg	57	55	1	i	2	0	549.66	0.55	0.58
bfer_166	0	2	01	1	47	2.240179e+02	2208.jpg	2211.jpg	52	48	0	i	2	1	808.75	0.60	0.62
bfer_166	0	2	01	1	48	2.320269e+02	1116.jpg	1202.jpg	10	9	0	i	1	1	743.77	0.66	0.67
bfer_166	0	2	01	1	49	2.380170e+02	1219.jpg	1103.jpg	15	8	0	i	1	1	745.64	0.58	0.67
bfer_166	0	2	01	1	50	2.470270e+02	2115.jpg	2218.jpg	62	61	0	u	6	0	719.63	0.47	0.49
bfer_166	0	2	01	1	51	2.590238e+02	1103.jpg	1102.jpg	8	13	1	u	1	1	618.88	0.67	0.61
bfer_166	0	2	01	1	52	2.620272e+02	2216.jpg	2102.jpg	53	56	0	i	2	1	599.43	0.60	0.56
bfer_166	0	2	01	1	53	2.690184e+02	2211.jpg	2216.jpg	48	53	1	u	2	1	624.22	0.62	0.60
bfer_166	0	2	01	1	54	2.730228e+02	1120.jpg	1219.jpg	16	15	1	u	1	1	659.82	0.57	0.58
bfer_166	0	2	01	1	55	2.760263e+02	1218.jpg	1110.jpg	11	18	1	u	1	1	848.38	0.66	0.57
bfer_166	0	2	01	1	56	2.790296e+02	1106.jpg	1120.jpg	12	16	0	u	1	0	789.01	0.63	0.57
bfer_166	0	2	01	1	57	2.830174e+02	2208.jpg	2121.jpg	52	54	0	i	2	1	625.27	0.60	0.59
bfer_166	0	2	01	1	58	2.890242e+02	2107.jpg	2102.jpg	58	56	0	i	2	1	818.46	0.55	0.56
bfer_166	0	2	01	1	59	2.920276e+02	1214.jpg	1202.jpg	7	9	0	i	1	1	847.05	0.67	0.67
bfer_166	0	2	01	1	60	3.010210e+02	1104.jpg	1214.jpg	14	7	1	u	1	1	653.70	0.61	0.67
bfer_166	0	2	01	1	61	3.040244e+02	1214.jpg	1103.jpg	7	8	0	u	1	0	634.29	0.67	0.67
bfer_166	0	2	01	1	62	3.090300e+02	2206.jpg	2203.jpg	44	78	1	u	4	1	644.72	0.75	0.23
bfer_166	0	2	01	1	63	3.170223e+02	1104.jpg	1106.jpg	14	12	1	i	1	0	628.41	0.61	0.63
bfer_166	0	2	01	1	64	3.220279e+02	2216.jpg	2112.jpg	53	51	0	i	2	1	1046.77	0.60	0.60
bfer_166	0	2	01	1	65	3.250312e+02	2215.jpg	2208.jpg	49	52	1	i	2	0	571.44	0.62	0.60
bfer_166	0	2	01	1	66	3.280179e+02	2211.jpg	2113.jpg	48	55	1	i	2	0	568.76	0.62	0.58
bfer_166	0	2	01	1	67	3.380292e+02	1116.jpg	1212.jpg	10	17	0	u	1	0	709.49	0.66	0.57
bfer_166	0	2	01	1	68	3.410156e+02	2208.jpg	2119.jpg	52	57	0	i	2	1	883.07	0.60	0.55
bfer_166	0	2	01	1	69	3.440192e+02	2106.jpg	2102.jpg	50	56	0	i	2	1	679.44	0.62	0.56
bfer_166	0	2	01	1	70	3.470225e+02	2119.jpg	2107.jpg	57	58	1	u	2	1	788.17	0.55	0.55
bfer_166	0	2	01	1	71	3.510271e+02	2117.jpg	2206.jpg	77	44	0	i	4	1	655.56	0.28	0.75
bfer_166	0	2	01	1	72	3.540304e+02	1116.jpg	1218.jpg	10	11	0	u	1	0	828.24	0.66	0.66
bfer_166	0	2	01	1	73	3.570171e+02	2112.jpg	2210.jpg	51	47	1	i	2	0	793.53	0.60	0.63
bfer_166	0	2	01	1	74	3.600205e+02	2107.jpg	2121.jpg	58	54	0	i	2	1	910.20	0.55	0.59
bfer_166	0	2	01	1	75	3.630238e+02	1104.jpg	1116.jpg	14	10	1	u	1	1	514.89	0.61	0.66
bfer_166	0	2	01	1	76	3.660271e+02	2215.jpg	2106.jpg	49	50	1	u	2	1	927.53	0.62	0.62
bfer_166	0	2	01	1	77	3.710159e+02	1120.jpg	1214.jpg	16	7	1	i	1	0	602.79	0.57	0.67
bfer_166	0	2	01	1	78	3.740195e+02	1117.jpg	1215.jpg	22	21	0	i	5	1	535.18	0.52	0.52
bfer_166	0	2	01	1	79	3.810273e+02	1103.jpg	1106.jpg	8	12	1	i	1	0	671.34	0.67	0.63
bfer_166	0	2	01	1	80	3.910219e+02	1219.jpg	1104.jpg	15	14	0	u	1	0	412.78	0.58	0.61
bfer_166	0	2	01	1	81	4.000150e+02	2103.jpg	2218.jpg	59	61	0	u	6	0	843.65	0.54	0.49
bfer_166	0	2	01	1	82	4.040198e+02	2121.jpg	2113.jpg	54	55	1	u	2	1	718.84	0.59	0.58
bfer_166	0	2	01	1	83	4.110276e+02	2106.jpg	2112.jpg	50	51	0	u	2	0	727.03	0.62	0.60
bfer_166	0	2	01	1	84	4.200210e+02	1106.jpg	1218.jpg	12	11	0	u	1	0	605.63	0.63	0.66
bfer_166	0	2	01	1	85	4.230245e+02	1218.jpg	1214.jpg	11	7	1	u	1	1	674.17	0.66	0.67
bfer_166	0	2	01	1	86	4.300153e+02	1219.jpg	1202.jpg	15	9	0	u	1	0	699.41	0.58	0.67
bfer_166	0	2	01	1	87	4.340201e+02	2107.jpg	2215.jpg	58	49	0	i	2	1	814.58	0.55	0.62
bfer_166	0	2	01	1	88	4.370235e+02	1102.jpg	1120.jpg	13	16	0	u	1	0	555.15	0.61	0.57
