subjectID	scanner	order	block	run	trial	onsettime	ImageLeft	ImageRight	bidIndexLeft	bidIndexRight	IsleftGo	Response	PairType	Outcome	RT	bidLeft	bidRight	ixationTime	
MRI_snacks_113	 1	 1	 02	 2	 1	 2.030079e+00	 GumiWine2.bmp	 Halva2.bmp	 45	 49	 1	 b	 2	 1	 1109.48	 2.62	 1.67	 3.632982e+00	 
MRI_snacks_113	 1	 1	 02	 2	 2	 9.031181e+00	 CrunchBisquitBrown3.bmp	 Bounty.bmp	 7	 9	 1	 y	 1	 0	 1293.38	 9.11	 8.00	 1.081668e+01	 
MRI_snacks_113	 1	 1	 02	 2	 3	 2.201666e+01	 DoritosNatural.bmp	 DoritosSourSpicy.bmp	 51	 53	 0	 b	 2	 0	 1273.91	 1.62	 0.47	 2.380077e+01	 
MRI_snacks_113	 1	 1	 02	 2	 4	 2.601999e+01	 DoritosSourSpicy.bmp	 Taami.bmp	 53	 54	 1	 b	 2	 1	 1071.58	 0.47	 0.13	 2.760129e+01	 
MRI_snacks_113	 1	 1	 02	 2	 5	 3.101845e+01	 BabyDoll.bmp	 Tapuchips.bmp	 47	 43	 1	 y	 2	 0	 1383.11	 1.71	 2.64	 3.290234e+01	 
MRI_snacks_113	 1	 1	 02	 2	 6	 3.402007e+01	 Cheetos.bmp	 CrunchBisquitBrown3.bmp	 14	 7	 0	 y	 1	 1	 1398.49	 6.96	 9.11	 3.591953e+01	 
MRI_snacks_113	 1	 1	 02	 2	 7	 3.901977e+01	 Taami.bmp	 BabyDoll.bmp	 54	 47	 0	 y	 2	 1	 954.80	 0.13	 1.71	 4.048376e+01	 
MRI_snacks_113	 1	 1	 02	 2	 8	 4.302052e+01	 Shugi.bmp	 BisliOnion.bmp	 46	 44	 0	 y	 2	 1	 1000.03	 1.78	 2.62	 4.452102e+01	 
MRI_snacks_113	 1	 1	 02	 2	 9	 5.202206e+01	 ClickBisquit2.bmp	 BisliPizza3.bmp	 8	 10	 0	 b	 1	 0	 1188.50	 8.16	 7.13	 5.371707e+01	 
MRI_snacks_113	 1	 1	 02	 2	 10	 5.702299e+01	 Smarties.bmp	 BisliPizza3.bmp	 11	 10	 0	 y	 1	 1	 970.57	 7.11	 7.13	 5.850051e+01	 
MRI_snacks_113	 1	 1	 02	 2	 11	 6.102373e+01	 CrunchBisquitBrown3.bmp	 Popco.bmp	 7	 17	 1	 b	 1	 1	 894.84	 9.11	 6.84	 6.242416e+01	 
MRI_snacks_113	 1	 1	 02	 2	 12	 6.802486e+01	 Bounty.bmp	 WerthersOriginal.bmp	 9	 18	 0	 b	 1	 0	 944.70	 8.00	 6.80	 6.947526e+01	 
MRI_snacks_113	 1	 1	 02	 2	 13	 7.202569e+01	 Shugi.bmp	 ChocolateParaMarir2.bmp	 46	 52	 0	 y	 2	 1	 899.87	 1.78	 0.60	 7.342594e+01	 
MRI_snacks_113	 1	 1	 02	 2	 14	 7.802661e+01	 WerthersOriginal.bmp	 Cheetos.bmp	 18	 14	 1	 b	 1	 1	 942.95	 6.80	 6.96	 7.946763e+01	 
MRI_snacks_113	 1	 1	 02	 2	 15	 8.302751e+01	 DoritosGrill.bmp	 Tapuchips.bmp	 50	 43	 1	 y	 2	 0	 1450.04	 1.64	 2.64	 8.497811e+01	 
MRI_snacks_113	 1	 1	 02	 2	 16	 8.702822e+01	 Bounty.bmp	 BisliPizza3.bmp	 9	 10	 0	 b	 1	 0	 1296.33	 8.00	 7.13	 8.881773e+01	 
MRI_snacks_113	 1	 1	 02	 2	 17	 9.002875e+01	 ChocolateParaMilk3.bmp	 HispusimShatiah.bmp	 12	 16	 1	 b	 1	 1	 1017.81	 7.00	 6.89	 9.154587e+01	 
MRI_snacks_113	 1	 1	 02	 2	 18	 9.302929e+01	 Shugi.bmp	 GumiWine2.bmp	 46	 45	 0	 y	 2	 1	 817.27	 1.78	 2.62	 9.434632e+01	 
MRI_snacks_113	 1	 1	 02	 2	 19	 9.703003e+01	 Mentos.bmp	 ChocolateParaMarir2.bmp	 48	 52	 0	 y	 2	 1	 936.53	 1.69	 0.60	 9.846773e+01	 
MRI_snacks_113	 1	 1	 02	 2	 20	 1.100322e+02	 BisliOnion.bmp	 Halva2.bmp	 44	 49	 1	 b	 2	 1	 1175.36	 2.62	 1.67	 1.117013e+02	 
MRI_snacks_113	 1	 1	 02	 2	 21	 1.140178e+02	 SkittlesFruits2.bmp	 CrunchBisquitWhite2.bmp	 55	 6	 0	 y	 4	 1	 884.72	 0.13	 9.16	 1.154168e+02	 
MRI_snacks_113	 1	 1	 02	 2	 22	 1.170179e+02	 ChocolateParaMilk3.bmp	 Popco.bmp	 12	 17	 1	 b	 1	 1	 911.65	 7.00	 6.84	 1.184348e+02	 
MRI_snacks_113	 1	 1	 02	 2	 23	 1.220180e+02	 BisliPizza3.bmp	 Cheetos.bmp	 10	 14	 1	 y	 1	 0	 1147.56	 7.13	 6.96	 1.236681e+02	 
MRI_snacks_113	 1	 1	 02	 2	 24	 1.250181e+02	 WerthersOriginal.bmp	 ClickBisquit2.bmp	 18	 8	 1	 y	 1	 0	 1273.44	 6.80	 8.16	 1.268020e+02	 
MRI_snacks_113	 1	 1	 02	 2	 25	 1.290189e+02	 ChocolateParaCookies5.bmp	 Bounty.bmp	 15	 9	 1	 b	 1	 1	 742.70	 6.96	 8.00	 1.302692e+02	 
MRI_snacks_113	 1	 1	 02	 2	 26	 1.350199e+02	 DoritosSourSpicy.bmp	 Shugi.bmp	 53	 46	 1	 b	 2	 1	 1140.65	 0.47	 1.78	 1.366704e+02	 
MRI_snacks_113	 1	 1	 02	 2	 27	 1.380225e+02	 Smarties.bmp	 ChocolateParaMilk3.bmp	 11	 12	 0	 y	 1	 1	 990.07	 7.11	 7.00	 1.395209e+02	 
MRI_snacks_113	 1	 1	 02	 2	 28	 1.420223e+02	 HispusimShatiah.bmp	 ClickXLwhite4.bmp	 16	 13	 0	 y	 1	 1	 928.27	 6.89	 6.98	 1.434548e+02	 
MRI_snacks_113	 1	 1	 02	 2	 29	 1.470220e+02	 DoritosGrill.bmp	 Taami.bmp	 50	 54	 1	 b	 2	 1	 873.56	 1.64	 0.13	 1.484017e+02	 
MRI_snacks_113	 1	 1	 02	 2	 30	 1.510227e+02	 DoritosGrill.bmp	 DoritosNatural.bmp	 50	 51	 1	 b	 2	 1	 865.84	 1.64	 1.62	 1.523898e+02	 
MRI_snacks_113	 1	 1	 02	 2	 31	 1.630248e+02	 DoritosNatural.bmp	 BisliOnion.bmp	 51	 44	 0	 b	 2	 0	 1224.75	 1.62	 2.62	 1.647521e+02	 
MRI_snacks_113	 1	 1	 02	 2	 32	 1.690258e+02	 Taami.bmp	 GumiWine2.bmp	 54	 45	 0	 y	 2	 1	 811.73	 0.13	 2.62	 1.703429e+02	 
MRI_snacks_113	 1	 1	 02	 2	 33	 1.720264e+02	 ChocolateParaMilk3.bmp	 ClickBisquit2.bmp	 12	 8	 1	 b	 1	 1	 1440.17	 7.00	 8.16	 1.739688e+02	 
MRI_snacks_113	 1	 1	 02	 2	 34	 1.760271e+02	 SkittlesFruits2.bmp	 Loacker.bmp	 55	 5	 0	 y	 4	 1	 1024.47	 0.13	 9.16	 1.775523e+02	 
MRI_snacks_113	 1	 1	 02	 2	 35	 1.790276e+02	 BisliPizza3.bmp	 HispusimShatiah.bmp	 10	 16	 1	 b	 1	 1	 928.98	 7.13	 6.89	 1.804523e+02	 
MRI_snacks_113	 1	 1	 02	 2	 36	 1.820281e+02	 Popco.bmp	 WerthersOriginal.bmp	 17	 18	 0	 b	 1	 0	 1194.44	 6.84	 6.80	 1.837190e+02	 
MRI_snacks_113	 1	 1	 02	 2	 37	 1.850286e+02	 Tapuchips.bmp	 BisliOnion.bmp	 43	 44	 0	 b	 2	 0	 1375.92	 2.64	 2.62	 1.869024e+02	 
MRI_snacks_113	 1	 1	 02	 2	 38	 1.880291e+02	 BabyDoll.bmp	 Mentos.bmp	 47	 48	 1	 b	 2	 1	 894.47	 1.71	 1.69	 1.894189e+02	 
