subjectID	scanner	order	block	run	trial	onsettime	ImageLeft	ImageRight	bidIndexLeft	bidIndexRight	IsleftGo	Response	PairType	Outcome	RT	bidLeft	bidRight	ixationTime	
MRI_snacks_126	 1	 2	 03	 2	 1	 2.030340e+00	 Mars.bmp	 ClickBlackWhite3.bmp	 18	 9	 0	 y	 1	 1	 886.43	 4.87	 6.49	 3.415159e+00	 
MRI_snacks_126	 1	 2	 03	 2	 2	 5.030949e+00	 GumiWine2.bmp	 BisliGrill.bmp	 54	 47	 1	 y	 2	 0	 770.80	 1.09	 1.64	 6.304943e+00	 
MRI_snacks_126	 1	 2	 03	 2	 3	 8.031458e+00	 ChocolateParaMarir2.bmp	 ClickBisquit2.bmp	 14	 10	 1	 b	 1	 1	 841.31	 5.91	 6.40	 9.371656e+00	 
MRI_snacks_126	 1	 2	 03	 2	 4	 1.303231e+01	 Cheetos.bmp	 CrunchBisquitBrown3.bmp	 56	 6	 0	 y	 4	 1	 802.43	 0.58	 7.00	 1.433272e+01	 
MRI_snacks_126	 1	 2	 03	 2	 5	 1.803293e+01	 ChocolateParaCookies5.bmp	 Kitkat.bmp	 8	 12	 1	 b	 1	 1	 857.81	 6.98	 5.98	 1.938849e+01	 
MRI_snacks_126	 1	 2	 03	 2	 6	 2.502171e+01	 CrunchShokoVanil.bmp	 ClickBlackWhite3.bmp	 13	 9	 0	 y	 1	 1	 674.03	 5.91	 6.49	 2.620522e+01	 
MRI_snacks_126	 1	 2	 03	 2	 7	 2.902178e+01	 GumiWine2.bmp	 WerthersOriginal.bmp	 54	 53	 1	 y	 2	 0	 729.97	 1.09	 1.13	 3.025528e+01	 
MRI_snacks_126	 1	 2	 03	 2	 8	 3.202189e+01	 DoritosSourSpicy.bmp	 ClickBisquit2.bmp	 17	 10	 1	 y	 1	 0	 804.85	 4.98	 6.40	 3.333871e+01	 
MRI_snacks_126	 1	 2	 03	 2	 9	 3.902198e+01	 BisliPizza3.bmp	 WerthersOriginal.bmp	 43	 53	 1	 b	 2	 1	 1025.76	 1.71	 1.13	 4.055551e+01	 
MRI_snacks_126	 1	 2	 03	 2	 10	 4.302211e+01	 GumiSnakes3.bmp	 DoritosGrill.bmp	 52	 51	 0	 y	 2	 1	 855.62	 1.20	 1.27	 4.438883e+01	 
MRI_snacks_126	 1	 2	 03	 2	 11	 4.602205e+01	 GumiWine2.bmp	 Keifli.bmp	 54	 45	 1	 y	 2	 0	 769.69	 1.09	 1.69	 4.728867e+01	 
MRI_snacks_126	 1	 2	 03	 2	 12	 5.002219e+01	 DoritosGrill.bmp	 Keifli.bmp	 51	 45	 1	 b	 2	 1	 765.58	 1.27	 1.69	 5.128916e+01	 
MRI_snacks_126	 1	 2	 03	 2	 13	 5.402282e+01	 BambaSweet.bmp	 GumiSnakes3.bmp	 48	 52	 1	 b	 2	 1	 800.92	 1.64	 1.20	 5.532315e+01	 
MRI_snacks_126	 1	 2	 03	 2	 14	 5.902379e+01	 HispusimShatiah.bmp	 Halva2.bmp	 44	 46	 0	 b	 2	 0	 904.95	 1.69	 1.67	 6.043916e+01	 
MRI_snacks_126	 1	 2	 03	 2	 15	 6.302445e+01	 KifkefMaklot2.bmp	 ChocolateParaCookies5.bmp	 15	 8	 0	 y	 1	 1	 753.27	 5.89	 6.98	 6.427487e+01	 
MRI_snacks_126	 1	 2	 03	 2	 16	 6.702510e+01	 KifkefMaklot2.bmp	 ChocolateParaMarir2.bmp	 15	 14	 0	 y	 1	 1	 835.62	 5.89	 5.91	 6.835876e+01	 
MRI_snacks_126	 1	 2	 03	 2	 17	 7.002568e+01	 Tictac.bmp	 CrunchBisquitBrown3.bmp	 55	 6	 0	 y	 4	 1	 804.06	 0.60	 7.00	 7.132600e+01	 
MRI_snacks_126	 1	 2	 03	 2	 18	 8.002741e+01	 BambaSweet.bmp	 WerthersOriginal.bmp	 48	 53	 1	 y	 2	 0	 979.34	 1.64	 1.13	 8.151127e+01	 
MRI_snacks_126	 1	 2	 03	 2	 19	 8.402813e+01	 CrunchBisquitWhite2.bmp	 Twix.bmp	 7	 16	 0	 b	 1	 0	 864.60	 7.00	 5.31	 8.539516e+01	 
MRI_snacks_126	 1	 2	 03	 2	 20	 8.702868e+01	 WerthersOriginal.bmp	 Halva2.bmp	 53	 46	 0	 y	 2	 1	 844.08	 1.13	 1.67	 8.837279e+01	 
MRI_snacks_126	 1	 2	 03	 2	 21	 9.002908e+01	 Mars.bmp	 ChocolateParaCookies5.bmp	 18	 8	 0	 y	 1	 1	 777.66	 4.87	 6.98	 9.130614e+01	 
MRI_snacks_126	 1	 2	 03	 2	 22	 9.402981e+01	 BisliGrill.bmp	 Hit.bmp	 47	 49	 0	 b	 2	 0	 1056.92	 1.64	 1.62	 9.558952e+01	 
MRI_snacks_126	 1	 2	 03	 2	 23	 1.000309e+02	 Kitkat.bmp	 DoritosSourSpicy.bmp	 12	 17	 0	 y	 1	 1	 922.83	 5.98	 4.98	 1.014563e+02	 
MRI_snacks_126	 1	 2	 03	 2	 24	 1.030314e+02	 GumiSnakes3.bmp	 GumiWine2.bmp	 52	 54	 0	 b	 2	 0	 900.36	 1.20	 1.09	 1.044317e+02	 
MRI_snacks_126	 1	 2	 03	 2	 25	 1.060319e+02	 Kitkat.bmp	 ClickBlackWhite3.bmp	 12	 9	 0	 y	 1	 1	 780.80	 5.98	 6.49	 1.073063e+02	 
MRI_snacks_126	 1	 2	 03	 2	 26	 1.100326e+02	 KifkefMaklot2.bmp	 Snickers.bmp	 15	 11	 0	 b	 1	 0	 989.15	 5.89	 6.33	 1.115231e+02	 
MRI_snacks_126	 1	 2	 03	 2	 27	 1.130332e+02	 DoritosGrill.bmp	 Shugi.bmp	 51	 50	 1	 b	 2	 1	 908.56	 1.27	 1.58	 1.144397e+02	 
MRI_snacks_126	 1	 2	 03	 2	 28	 1.160336e+02	 Snickers.bmp	 CrunchShokoVanil.bmp	 11	 13	 1	 b	 1	 1	 915.14	 6.33	 5.91	 1.174400e+02	 
MRI_snacks_126	 1	 2	 03	 2	 29	 1.300233e+02	 BisliPizza3.bmp	 Keifli.bmp	 43	 45	 1	 b	 2	 1	 906.49	 1.71	 1.69	 1.314401e+02	 
MRI_snacks_126	 1	 2	 03	 2	 30	 1.400234e+02	 WerthersOriginal.bmp	 DoritosGrill.bmp	 53	 51	 0	 y	 2	 1	 782.39	 1.13	 1.27	 1.413069e+02	 
MRI_snacks_126	 1	 2	 03	 2	 31	 1.460235e+02	 ChocolateParaMarir2.bmp	 Kitkat.bmp	 14	 12	 1	 b	 1	 1	 738.24	 5.91	 5.98	 1.472726e+02	 
MRI_snacks_126	 1	 2	 03	 2	 32	 1.500235e+02	 ChocolateParaCookies5.bmp	 ClickBisquit2.bmp	 8	 10	 1	 b	 1	 1	 734.29	 6.98	 6.40	 1.512570e+02	 
MRI_snacks_126	 1	 2	 03	 2	 33	 1.560240e+02	 DoritosGrill.bmp	 HispusimShatiah.bmp	 51	 44	 1	 b	 2	 1	 960.80	 1.27	 1.69	 1.574907e+02	 
MRI_snacks_126	 1	 2	 03	 2	 34	 1.600247e+02	 BisliPizza3.bmp	 GumiSnakes3.bmp	 43	 52	 1	 b	 2	 1	 848.08	 1.71	 1.20	 1.613751e+02	 
MRI_snacks_126	 1	 2	 03	 2	 35	 1.660257e+02	 Twix.bmp	 Kitkat.bmp	 16	 12	 1	 y	 1	 0	 966.07	 5.31	 5.98	 1.674926e+02	 
MRI_snacks_126	 1	 2	 03	 2	 36	 1.780278e+02	 ClickBisquit2.bmp	 ClickBlackWhite3.bmp	 10	 9	 0	 b	 1	 0	 995.93	 6.40	 6.49	 1.795281e+02	 
MRI_snacks_126	 1	 2	 03	 2	 37	 1.810283e+02	 BisliPizza3.bmp	 HispusimShatiah.bmp	 43	 44	 1	 b	 2	 1	 783.47	 1.71	 1.69	 1.823119e+02	 
MRI_snacks_126	 1	 2	 03	 2	 38	 1.880295e+02	 CrunchShokoVanil.bmp	 DoritosSourSpicy.bmp	 13	 17	 0	 y	 1	 1	 805.28	 5.91	 4.98	 1.893299e+02	 
