subjectID	scanner	order	block	run	trial	onsettime	ImageLeft	ImageRight	bidIndexLeft	bidIndexRight	IsleftGo	Response	PairType	Outcome	RT	bidLeft	bidRight	ixationTime	
MRI_snacks_102	 1	 2	 01	 2	 1	 2.028911e+00	 ClickBlackWhite3.bmp	 KinderBuenoWhite2.bmp	 44	 43	 0	 b	 2	 0	 1400.09	 1.60	 1.62	 3.929132e+00	 
MRI_snacks_102	 1	 2	 01	 2	 2	 6.017406e+00	 DoritosSourSpicy.bmp	 Dubonim.bmp	 15	 14	 0	 y	 1	 1	 1071.59	 6.33	 6.36	 7.595920e+00	 
MRI_snacks_102	 1	 2	 01	 2	 3	 9.017946e+00	 HappyHippo.bmp	 BabyDoll.bmp	 17	 10	 1	 b	 1	 1	 1284.05	 5.80	 6.56	 1.081251e+01	 
MRI_snacks_102	 1	 2	 01	 2	 4	 1.401882e+01	 CrunchShokoVanil.bmp	 Twist.bmp	 50	 54	 0	 b	 2	 0	 1055.18	 0.73	 0.60	 1.557919e+01	 
MRI_snacks_102	 1	 2	 01	 2	 5	 1.701940e+01	 CrunchBisquitWhite2.bmp	 Twist.bmp	 45	 54	 0	 b	 2	 0	 849.59	 1.22	 0.60	 1.836991e+01	 
MRI_snacks_102	 1	 2	 01	 2	 6	 2.001993e+01	 ClickBlackWhite3.bmp	 BisliOnion.bmp	 44	 49	 0	 y	 2	 1	 810.06	 1.60	 0.73	 2.133703e+01	 
MRI_snacks_102	 1	 2	 01	 2	 7	 3.402242e+01	 DoritosNatural.bmp	 Dubonim.bmp	 13	 14	 0	 y	 1	 1	 982.58	 6.38	 6.36	 3.550616e+01	 
MRI_snacks_102	 1	 2	 01	 2	 8	 3.802301e+01	 HappyHippo.bmp	 DoritosNatural.bmp	 17	 13	 1	 y	 1	 0	 834.99	 5.80	 6.38	 3.936290e+01	 
MRI_snacks_102	 1	 2	 01	 2	 9	 4.202373e+01	 KinderBuenoWhite2.bmp	 ClickBalls5.bmp	 43	 52	 1	 b	 2	 1	 966.26	 1.62	 0.69	 4.349093e+01	 
MRI_snacks_102	 1	 2	 01	 2	 10	 4.502430e+01	 KinderBuenoWhite2.bmp	 CrunchBisquitWhite2.bmp	 43	 45	 1	 b	 2	 1	 1100.69	 1.62	 1.22	 4.662970e+01	 
MRI_snacks_102	 1	 2	 01	 2	 11	 4.802482e+01	 Tictac.bmp	 Twix.bmp	 55	 5	 0	 y	 4	 1	 890.17	 0.60	 7.67	 4.941304e+01	 
MRI_snacks_102	 1	 2	 01	 2	 12	 5.302564e+01	 DoritosSourSpicy.bmp	 DoritosGrill.bmp	 15	 11	 0	 y	 1	 1	 905.35	 6.33	 6.51	 5.442969e+01	 
MRI_snacks_102	 1	 2	 01	 2	 13	 5.602616e+01	 KifkefMaklot2.bmp	 ClickBalls5.bmp	 46	 52	 1	 b	 2	 1	 771.84	 1.20	 0.69	 5.729651e+01	 
MRI_snacks_102	 1	 2	 01	 2	 14	 6.602802e+01	 ChocolateParaSucariotKoftzot2.bmp	 CrunchBisquitWhite2.bmp	 51	 45	 1	 b	 2	 1	 985.98	 0.69	 1.22	 6.751325e+01	 
MRI_snacks_102	 1	 2	 01	 2	 15	 7.201294e+01	 BabyDoll.bmp	 Dubonim.bmp	 10	 14	 0	 y	 1	 1	 817.06	 6.56	 6.36	 7.334611e+01	 
MRI_snacks_102	 1	 2	 01	 2	 16	 7.501300e+01	 HispusimShatiah.bmp	 DoritosNatural.bmp	 8	 13	 1	 y	 1	 0	 1152.99	 7.51	 6.38	 7.668011e+01	 
MRI_snacks_102	 1	 2	 01	 2	 17	 7.901321e+01	 KinderBuenoWhite2.bmp	 CrunchShokoVanil.bmp	 43	 50	 1	 b	 2	 1	 1453.78	 1.62	 0.73	 8.098072e+01	 
MRI_snacks_102	 1	 2	 01	 2	 18	 8.401445e+01	 HispusimShatiah.bmp	 DoritosSourSpicy.bmp	 8	 15	 1	 y	 1	 0	 1026.59	 7.51	 6.33	 8.554811e+01	 
MRI_snacks_102	 1	 2	 01	 2	 19	 9.101556e+01	 CrunchShokoVanil.bmp	 ChocolateParaSucariotKoftzot2.bmp	 50	 51	 0	 b	 2	 0	 945.44	 0.73	 0.69	 9.246614e+01	 
MRI_snacks_102	 1	 2	 01	 2	 20	 9.601743e+01	 GumiSnakes3.bmp	 Tictac.bmp	 6	 55	 1	 b	 4	 1	 894.57	 7.53	 0.60	 9.741695e+01	 
MRI_snacks_102	 1	 2	 01	 2	 21	 9.901707e+01	 DoritosSourSpicy.bmp	 SkittlesFruits2.bmp	 15	 16	 0	 b	 1	 0	 865.97	 6.33	 5.96	 1.003841e+02	 
MRI_snacks_102	 1	 2	 01	 2	 22	 1.050181e+02	 SkittlesFruits2.bmp	 BabyDoll.bmp	 16	 10	 1	 b	 1	 1	 1053.89	 5.96	 6.56	 1.065805e+02	 
MRI_snacks_102	 1	 2	 01	 2	 23	 1.090188e+02	 Shugi.bmp	 ClickBlackWhite3.bmp	 48	 44	 1	 b	 2	 1	 1141.21	 1.09	 1.60	 1.106693e+02	 
MRI_snacks_102	 1	 2	 01	 2	 24	 1.210208e+02	 Twist.bmp	 ClickBalls5.bmp	 54	 52	 1	 y	 2	 0	 881.16	 0.60	 0.69	 1.224046e+02	 
MRI_snacks_102	 1	 2	 01	 2	 25	 1.240213e+02	 ClickBalls5.bmp	 Shugi.bmp	 52	 48	 0	 y	 2	 1	 1083.66	 0.69	 1.09	 1.256050e+02	 
MRI_snacks_102	 1	 2	 01	 2	 26	 1.270218e+02	 CrunchShokoVanil.bmp	 KifkefMaklot2.bmp	 50	 46	 0	 b	 2	 0	 799.14	 0.73	 1.20	 1.283223e+02	 
MRI_snacks_102	 1	 2	 01	 2	 27	 1.310225e+02	 BisliOnion.bmp	 ClickBalls5.bmp	 49	 52	 1	 b	 2	 1	 845.46	 0.73	 0.69	 1.323731e+02	 
MRI_snacks_102	 1	 2	 01	 2	 28	 1.370236e+02	 Kitkat.bmp	 HispusimShatiah.bmp	 12	 8	 0	 y	 1	 1	 1208.41	 6.42	 7.51	 1.387308e+02	 
MRI_snacks_102	 1	 2	 01	 2	 29	 1.400242e+02	 Snickers.bmp	 SkittlesFruits2.bmp	 7	 16	 0	 x	 1	 999	 999000.00	 7.53	 5.96	 1.420246e+02	 
MRI_snacks_102	 1	 2	 01	 2	 30	 1.490258e+02	 KashitSour.bmp	 Snickers.bmp	 9	 7	 1	 b	 1	 1	 978.24	 7.44	 7.53	 1.504978e+02	 
MRI_snacks_102	 1	 2	 01	 2	 31	 1.530264e+02	 Dubonim.bmp	 Snickers.bmp	 14	 7	 1	 b	 1	 1	 773.58	 6.36	 7.53	 1.542978e+02	 
MRI_snacks_102	 1	 2	 01	 2	 32	 1.570271e+02	 Shugi.bmp	 CrunchBisquitWhite2.bmp	 48	 45	 1	 b	 2	 1	 941.89	 1.09	 1.22	 1.584645e+02	 
MRI_snacks_102	 1	 2	 01	 2	 33	 1.600274e+02	 BisliOnion.bmp	 KinderJoy.bmp	 49	 47	 1	 b	 2	 1	 908.60	 0.73	 1.18	 1.614311e+02	 
MRI_snacks_102	 1	 2	 01	 2	 34	 1.630281e+02	 HappyHippo.bmp	 Snickers.bmp	 17	 7	 1	 b	 1	 1	 1086.87	 5.80	 7.53	 1.646145e+02	 
MRI_snacks_102	 1	 2	 01	 2	 35	 1.730145e+02	 DoritosSourSpicy.bmp	 HappyHippo.bmp	 15	 17	 0	 b	 1	 0	 782.52	 6.33	 5.80	 1.742981e+02	 
MRI_snacks_102	 1	 2	 01	 2	 36	 1.770146e+02	 ClickBalls5.bmp	 ChocolateParaSucariotKoftzot2.bmp	 52	 51	 0	 y	 2	 1	 918.37	 0.69	 0.69	 1.784312e+02	 
MRI_snacks_102	 1	 2	 01	 2	 37	 1.850153e+02	 Kitkat.bmp	 SkittlesFruits2.bmp	 12	 16	 0	 y	 1	 1	 1056.66	 6.42	 5.96	 1.865825e+02	 
MRI_snacks_102	 1	 2	 01	 2	 38	 1.880187e+02	 Loacker.bmp	 HappyHippo.bmp	 18	 17	 0	 y	 1	 1	 886.26	 5.44	 5.80	 1.894149e+02	 
