subjectID	scanner	order	block	run	trial	onsettime	ImageLeft	ImageRight	bidIndexLeft	bidIndexRight	IsleftGo	Response	PairType	Outcome	RT	bidLeft	bidRight	ixationTime	
MRI_snacks_114	 1	 2	 02	 2	 1	 2.016077e+00	 Dubonim.bmp	 BisliBbq.bmp	 50	 43	 0	 y	 2	 1	 861.54	 3.78	 3.89	 3.383165e+00	 
MRI_snacks_114	 1	 2	 02	 2	 2	 9.017325e+00	 KinderBuenoWhite2.bmp	 PesekZman.bmp	 10	 17	 0	 b	 1	 0	 795.30	 7.02	 6.93	 1.031773e+01	 
MRI_snacks_114	 1	 2	 02	 2	 3	 2.201963e+01	 Tictac.bmp	 Mentos.bmp	 44	 49	 0	 y	 2	 1	 700.99	 3.87	 3.78	 2.321996e+01	 
MRI_snacks_114	 1	 2	 02	 2	 4	 2.602032e+01	 Loacker.bmp	 KinderBuenoWhite2.bmp	 14	 10	 1	 b	 1	 1	 837.31	 6.96	 7.02	 2.735393e+01	 
MRI_snacks_114	 1	 2	 02	 2	 5	 3.102109e+01	 Tictac.bmp	 BisliPizza3.bmp	 44	 46	 0	 y	 2	 1	 668.53	 3.87	 3.84	 3.218812e+01	 
MRI_snacks_114	 1	 2	 02	 2	 6	 3.402167e+01	 DoritosGrill.bmp	 CrunchBisquitWhite2.bmp	 11	 7	 1	 y	 1	 0	 843.95	 7.00	 7.87	 3.536264e+01	 
MRI_snacks_114	 1	 2	 02	 2	 7	 3.902250e+01	 BambaSweet.bmp	 Popco.bmp	 48	 53	 1	 y	 2	 0	 782.12	 3.78	 3.69	 4.029596e+01	 
MRI_snacks_114	 1	 2	 02	 2	 8	 4.302322e+01	 Bounty.bmp	 BisliBbq.bmp	 47	 43	 0	 y	 2	 1	 774.40	 3.78	 3.89	 4.429604e+01	 
MRI_snacks_114	 1	 2	 02	 2	 9	 5.201257e+01	 DoritosGrill.bmp	 Egozi.bmp	 11	 13	 1	 b	 1	 1	 713.06	 7.00	 6.96	 5.322957e+01	 
MRI_snacks_114	 1	 2	 02	 2	 10	 5.701264e+01	 ClickBisquit2.bmp	 Cheetos.bmp	 5	 56	 1	 b	 4	 1	 1048.99	 7.91	 3.67	 5.856283e+01	 
MRI_snacks_114	 1	 2	 02	 2	 11	 6.101269e+01	 Tictac.bmp	 BambaSweet.bmp	 44	 48	 0	 y	 2	 1	 660.94	 3.87	 3.78	 6.217963e+01	 
MRI_snacks_114	 1	 2	 02	 2	 12	 6.801281e+01	 DoritosGrill.bmp	 DoritosNatural.bmp	 11	 15	 1	 b	 1	 1	 776.81	 7.00	 6.96	 6.929629e+01	 
MRI_snacks_114	 1	 2	 02	 2	 13	 7.201283e+01	 Dubonim.bmp	 CrunchShokoVanil.bmp	 50	 54	 0	 y	 2	 1	 879.78	 3.78	 3.69	 7.339640e+01	 
MRI_snacks_114	 1	 2	 02	 2	 14	 7.801293e+01	 CrunchShokoVanil.bmp	 Tortit.bmp	 54	 45	 1	 b	 2	 1	 784.70	 3.69	 3.84	 7.929639e+01	 
MRI_snacks_114	 1	 2	 02	 2	 15	 8.301356e+01	 DoritosSourSpicy.bmp	 DoritosGrill.bmp	 18	 11	 0	 y	 1	 1	 820.06	 6.84	 7.00	 8.433071e+01	 
MRI_snacks_114	 1	 2	 02	 2	 16	 8.701418e+01	 ClickXLbrown4.bmp	 DoritosNatural.bmp	 8	 15	 1	 b	 1	 1	 733.46	 7.07	 6.96	 8.824802e+01	 
MRI_snacks_114	 1	 2	 02	 2	 17	 9.001477e+01	 Bamba.bmp	 BisliPizza3.bmp	 52	 46	 0	 y	 2	 1	 703.85	 3.71	 3.84	 9.121507e+01	 
MRI_snacks_114	 1	 2	 02	 2	 18	 9.301527e+01	 Mentos.bmp	 Tortit.bmp	 49	 45	 1	 b	 2	 1	 816.35	 3.78	 3.84	 9.433236e+01	 
MRI_snacks_114	 1	 2	 02	 2	 19	 9.701593e+01	 KinderBuenoWhite2.bmp	 DoritosGrill.bmp	 10	 11	 0	 y	 1	 1	 850.71	 7.02	 7.00	 9.836649e+01	 
MRI_snacks_114	 1	 2	 02	 2	 20	 1.100182e+02	 CrunchBisquitWhite2.bmp	 ChocolateParaSucariotKoftzot2.bmp	 7	 9	 0	 y	 1	 1	 1112.39	 7.87	 7.07	 1.116354e+02	 
MRI_snacks_114	 1	 2	 02	 2	 21	 1.140189e+02	 BambaSweet.bmp	 Bounty.bmp	 48	 47	 1	 b	 2	 1	 735.72	 3.78	 3.78	 1.152526e+02	 
MRI_snacks_114	 1	 2	 02	 2	 22	 1.170195e+02	 Tortit.bmp	 BisliPizza3.bmp	 45	 46	 0	 y	 2	 1	 742.14	 3.84	 3.84	 1.182637e+02	 
MRI_snacks_114	 1	 2	 02	 2	 23	 1.220203e+02	 HappyHippo.bmp	 Tortit.bmp	 51	 45	 1	 b	 2	 1	 785.30	 3.76	 3.84	 1.233042e+02	 
MRI_snacks_114	 1	 2	 02	 2	 24	 1.250208e+02	 Bamba.bmp	 CrunchShokoVanil.bmp	 52	 54	 0	 b	 2	 0	 952.79	 3.71	 3.69	 1.264712e+02	 
MRI_snacks_114	 1	 2	 02	 2	 25	 1.290216e+02	 HappyHippo.bmp	 Bamba.bmp	 51	 52	 1	 b	 2	 1	 985.04	 3.76	 3.71	 1.305054e+02	 
MRI_snacks_114	 1	 2	 02	 2	 26	 1.350226e+02	 Popco.bmp	 BisliPizza3.bmp	 53	 46	 0	 y	 2	 1	 874.04	 3.69	 3.84	 1.363972e+02	 
MRI_snacks_114	 1	 2	 02	 2	 27	 1.380231e+02	 DoritosSourSpicy.bmp	 PesekZman.bmp	 18	 17	 0	 b	 1	 0	 756.55	 6.84	 6.93	 1.392734e+02	 
MRI_snacks_114	 1	 2	 02	 2	 28	 1.420238e+02	 BambaSweet.bmp	 Bamba.bmp	 48	 52	 1	 y	 2	 0	 676.78	 3.78	 3.71	 1.431972e+02	 
MRI_snacks_114	 1	 2	 02	 2	 29	 1.470138e+02	 DoritosNatural.bmp	 ChocolateParaMilk3.bmp	 15	 16	 0	 y	 1	 1	 790.81	 6.96	 6.96	 1.483140e+02	 
MRI_snacks_114	 1	 2	 02	 2	 30	 1.510139e+02	 ChocolateParaMilk3.bmp	 BisliOnion.bmp	 16	 12	 1	 b	 1	 1	 876.77	 6.96	 6.96	 1.523974e+02	 
MRI_snacks_114	 1	 2	 02	 2	 31	 1.630140e+02	 ChocolateParaSucariotKoftzot2.bmp	 DoritosSourSpicy.bmp	 9	 18	 1	 y	 1	 0	 945.58	 7.07	 6.84	 1.644642e+02	 
MRI_snacks_114	 1	 2	 02	 2	 32	 1.690141e+02	 ChocolateParaMilk3.bmp	 KinderBuenoWhite2.bmp	 16	 10	 1	 b	 1	 1	 881.50	 6.96	 7.02	 1.703976e+02	 
MRI_snacks_114	 1	 2	 02	 2	 33	 1.720145e+02	 ChocolateParaMilk3.bmp	 CrunchBisquitWhite2.bmp	 16	 7	 1	 y	 1	 0	 1003.16	 6.96	 7.87	 1.735144e+02	 
MRI_snacks_114	 1	 2	 02	 2	 34	 1.760168e+02	 Popco.bmp	 BisliBbq.bmp	 53	 43	 0	 y	 2	 1	 762.80	 3.69	 3.89	 1.772810e+02	 
MRI_snacks_114	 1	 2	 02	 2	 35	 1.790142e+02	 BisliOnion.bmp	 ClickXLbrown4.bmp	 12	 8	 0	 y	 1	 1	 823.37	 6.96	 7.07	 1.803473e+02	 
MRI_snacks_114	 1	 2	 02	 2	 36	 1.820175e+02	 ClickBisquit2.bmp	 SkittlesFruits2.bmp	 5	 55	 1	 b	 4	 1	 802.15	 7.91	 3.69	 1.833146e+02	 
MRI_snacks_114	 1	 2	 02	 2	 37	 1.850146e+02	 PesekZman.bmp	 Egozi.bmp	 17	 13	 1	 y	 1	 0	 1114.02	 6.93	 6.96	 1.866318e+02	 
MRI_snacks_114	 1	 2	 02	 2	 38	 1.880183e+02	 KinderBuenoWhite2.bmp	 ChocolateParaSucariotKoftzot2.bmp	 10	 9	 0	 y	 1	 1	 801.36	 7.02	 7.07	 1.893155e+02	 
