subjectID	scanner	order	block	run	trial	onsettime	ImageLeft	ImageRight	bidIndexLeft	bidIndexRight	IsleftGo	Response	PairType	Outcome	RT	bidLeft	bidRight	ixationTime	
MRI_snacks_112	 1	 2	 02	 1	 1	 2.022356e+00	 BambaNugat.bmp	 GumiSnakes3.bmp	 52	 43	 0	 b	 2	 0	 1016.87	 0.58	 1.62	 3.539125e+00	 
MRI_snacks_112	 1	 2	 02	 1	 2	 6.022360e+00	 Twist.bmp	 ClickBalls5.bmp	 46	 45	 1	 y	 2	 0	 820.88	 0.62	 0.64	 7.339275e+00	 
MRI_snacks_112	 1	 2	 02	 1	 3	 9.022349e+00	 KinderBuenoBrown3.bmp	 ChocolateParaSucariotKoftzot2.bmp	 18	 8	 0	 y	 1	 1	 894.88	 4.84	 6.93	 1.041567e+01	 
MRI_snacks_112	 1	 2	 02	 1	 4	 1.402247e+01	 BambaNugat.bmp	 Twist.bmp	 52	 46	 0	 b	 2	 0	 918.76	 0.58	 0.62	 1.543938e+01	 
MRI_snacks_112	 1	 2	 02	 1	 5	 1.702247e+01	 BisliGrill.bmp	 GumiSnakes3.bmp	 47	 43	 0	 b	 2	 0	 821.76	 0.62	 1.62	 1.833948e+01	 
MRI_snacks_112	 1	 2	 02	 1	 6	 2.002255e+01	 Taami.bmp	 HappyHippo.bmp	 11	 10	 1	 b	 1	 1	 867.71	 6.93	 6.93	 2.138946e+01	 
MRI_snacks_112	 1	 2	 02	 1	 7	 3.402274e+01	 Mekupelet.bmp	 ChocolateParaSucariotKoftzot2.bmp	 13	 8	 0	 y	 1	 1	 943.51	 5.93	 6.93	 3.545631e+01	 
MRI_snacks_112	 1	 2	 02	 1	 8	 3.802282e+01	 ClickBalls5.bmp	 BabyDoll.bmp	 45	 54	 0	 b	 2	 0	 987.42	 0.64	 0.58	 3.950646e+01	 
MRI_snacks_112	 1	 2	 02	 1	 9	 4.202285e+01	 Egozi.bmp	 SkittlesSour4.bmp	 49	 50	 1	 b	 2	 1	 1162.37	 0.60	 0.60	 4.367306e+01	 
MRI_snacks_112	 1	 2	 02	 1	 10	 4.502289e+01	 Smarties.bmp	 Snickers.bmp	 55	 5	 0	 y	 4	 1	 846.35	 0.56	 7.02	 4.635658e+01	 
MRI_snacks_112	 1	 2	 02	 1	 11	 4.802294e+01	 ClickXLbrown4.bmp	 HappyHippo.bmp	 14	 10	 1	 b	 1	 1	 833.29	 5.89	 6.93	 4.935651e+01	 
MRI_snacks_112	 1	 2	 02	 1	 12	 5.302299e+01	 BabyDoll.bmp	 BisliGrill.bmp	 54	 47	 1	 y	 2	 0	 903.25	 0.58	 0.62	 5.442348e+01	 
MRI_snacks_112	 1	 2	 02	 1	 13	 5.602345e+01	 SkittlesSour4.bmp	 GumiSnakes3.bmp	 50	 43	 0	 b	 2	 0	 875.78	 0.60	 1.62	 5.739047e+01	 
MRI_snacks_112	 1	 2	 02	 1	 14	 6.602322e+01	 KinderJoy.bmp	 Taami.bmp	 12	 11	 0	 y	 1	 1	 698.02	 5.93	 6.93	 6.720905e+01	 
MRI_snacks_112	 1	 2	 02	 1	 15	 7.202327e+01	 ChocolateParaSucariotKoftzot2.bmp	 Twix.bmp	 8	 15	 1	 b	 1	 1	 787.96	 6.93	 5.87	 7.331005e+01	 
MRI_snacks_112	 1	 2	 02	 1	 16	 7.501015e+01	 KinderBuenoBrown3.bmp	 KinderBuenoWhite2.bmp	 18	 17	 0	 y	 1	 1	 819.08	 4.84	 4.84	 7.634016e+01	 
MRI_snacks_112	 1	 2	 02	 1	 17	 7.902336e+01	 ClickBalls5.bmp	 Tortit.bmp	 45	 48	 0	 b	 2	 0	 909.87	 0.64	 0.62	 8.042795e+01	 
MRI_snacks_112	 1	 2	 02	 1	 18	 8.402340e+01	 KinderJoy.bmp	 ChocolateParaSucariotKoftzot2.bmp	 12	 8	 0	 y	 1	 1	 748.82	 5.93	 6.93	 8.526216e+01	 
MRI_snacks_112	 1	 2	 02	 1	 19	 9.102349e+01	 ClickBalls5.bmp	 Egozi.bmp	 45	 49	 0	 b	 2	 0	 1478.74	 0.64	 0.60	 9.299680e+01	 
MRI_snacks_112	 1	 2	 02	 1	 20	 9.602364e+01	 Mekupelet.bmp	 KifkefMaklot2.bmp	 13	 9	 0	 y	 1	 1	 733.60	 5.93	 6.93	 9.725717e+01	 
MRI_snacks_112	 1	 2	 02	 1	 21	 9.902369e+01	 Mentos.bmp	 BambaNugat.bmp	 51	 52	 1	 y	 2	 0	 898.53	 0.58	 0.58	 1.004147e+02	 
MRI_snacks_112	 1	 2	 02	 1	 22	 1.050238e+02	 BagaleShtuhim.bmp	 HappyHippo.bmp	 16	 10	 1	 b	 1	 1	 879.48	 5.87	 6.93	 1.063992e+02	 
MRI_snacks_112	 1	 2	 02	 1	 23	 1.090237e+02	 BagaleShtuhim.bmp	 KinderJoy.bmp	 16	 12	 1	 b	 1	 1	 794.50	 5.87	 5.93	 1.103165e+02	 
MRI_snacks_112	 1	 2	 02	 1	 24	 1.210239e+02	 KinderBuenoWhite2.bmp	 ChocolateParaMilk3.bmp	 17	 7	 1	 y	 1	 0	 1143.35	 4.84	 6.96	 1.226575e+02	 
MRI_snacks_112	 1	 2	 02	 1	 25	 1.240240e+02	 KifkefMaklot2.bmp	 KinderBuenoBrown3.bmp	 9	 18	 1	 b	 1	 1	 810.27	 6.93	 4.84	 1.253241e+02	 
MRI_snacks_112	 1	 2	 02	 1	 26	 1.270240e+02	 Tortit.bmp	 BisliGrill.bmp	 48	 47	 1	 y	 2	 0	 1026.23	 0.62	 0.62	 1.285409e+02	 
MRI_snacks_112	 1	 2	 02	 1	 27	 1.310241e+02	 Twist.bmp	 Halva2.bmp	 46	 53	 1	 b	 2	 1	 820.14	 0.62	 0.58	 1.323409e+02	 
MRI_snacks_112	 1	 2	 02	 1	 28	 1.370209e+02	 SkittlesSour4.bmp	 Twist.bmp	 50	 46	 0	 y	 2	 1	 1111.33	 0.60	 0.62	 1.386244e+02	 
MRI_snacks_112	 1	 2	 02	 1	 29	 1.400242e+02	 ChocolateParaSucariotKoftzot2.bmp	 HappyHippo.bmp	 8	 10	 1	 b	 1	 1	 913.06	 6.93	 6.93	 1.414244e+02	 
MRI_snacks_112	 1	 2	 02	 1	 30	 1.490230e+02	 Halva2.bmp	 GumiSnakes3.bmp	 53	 43	 0	 b	 2	 0	 1415.23	 0.58	 1.62	 1.509241e+02	 
MRI_snacks_112	 1	 2	 02	 1	 31	 1.530243e+02	 ClickBisquit2.bmp	 Smarties.bmp	 6	 55	 1	 b	 4	 1	 1086.90	 7.00	 0.56	 1.546079e+02	 
MRI_snacks_112	 1	 2	 02	 1	 32	 1.570244e+02	 Halva2.bmp	 BabyDoll.bmp	 53	 54	 0	 b	 2	 0	 1130.86	 0.58	 0.58	 1.586415e+02	 
MRI_snacks_112	 1	 2	 02	 1	 33	 1.600244e+02	 Taami.bmp	 Twix.bmp	 11	 15	 1	 b	 1	 1	 825.79	 6.93	 5.87	 1.613419e+02	 
MRI_snacks_112	 1	 2	 02	 1	 34	 1.630085e+02	 Egozi.bmp	 WerthersOriginal.bmp	 49	 44	 1	 b	 2	 1	 1168.75	 0.60	 1.62	 1.646925e+02	 
MRI_snacks_112	 1	 2	 02	 1	 35	 1.730105e+02	 BisliGrill.bmp	 Mentos.bmp	 47	 51	 0	 b	 2	 0	 1107.74	 0.62	 0.58	 1.746277e+02	 
MRI_snacks_112	 1	 2	 02	 1	 36	 1.770112e+02	 ChocolateParaMilk3.bmp	 BagaleShtuhim.bmp	 7	 16	 0	 y	 1	 1	 1117.98	 6.96	 5.87	 1.786415e+02	 
MRI_snacks_112	 1	 2	 02	 1	 37	 1.850126e+02	 KinderBuenoWhite2.bmp	 Twix.bmp	 17	 15	 1	 b	 1	 1	 1227.63	 4.84	 5.87	 1.867463e+02	 
MRI_snacks_112	 1	 2	 02	 1	 38	 1.880248e+02	 Taami.bmp	 Mekupelet.bmp	 11	 13	 1	 b	 1	 1	 961.47	 6.93	 5.93	 1.894803e+02	 
