subjectID	scanner	order	block	run	trial	onsettime	ImageLeft	ImageRight	bidIndexLeft	bidIndexRight	IsleftGo	Response	PairType	Outcome	RT	bidLeft	bidRight	ixationTime	
MRI_snacks_128	 1	 2	 03	 2	 1	 2.016067e+00	 BisliBbq.bmp	 Tapuchips.bmp	 53	 54	 0	 y	 2	 1	 930.17	 0.07	 0.07	 3.450618e+00	 
MRI_snacks_128	 1	 2	 03	 2	 2	 6.016247e+00	 Taami.bmp	 Bamba.bmp	 16	 15	 1	 b	 1	 1	 661.02	 2.73	 3.62	 7.182912e+00	 
MRI_snacks_128	 1	 2	 03	 2	 3	 1.301623e+01	 BagaleShtuhim.bmp	 Mekupelet.bmp	 13	 11	 0	 y	 1	 1	 829.06	 3.76	 3.78	 1.434969e+01	 
MRI_snacks_128	 1	 2	 03	 2	 4	 1.601631e+01	 CrunchBisquitWhite2.bmp	 ChocolateParaCookies5.bmp	 10	 17	 0	 b	 1	 0	 1072.95	 3.80	 2.71	 1.759607e+01	 
MRI_snacks_128	 1	 2	 03	 2	 5	 2.101643e+01	 BambaNugat.bmp	 ClickBisquit2.bmp	 9	 18	 1	 y	 1	 0	 889.84	 3.82	 2.67	 2.241365e+01	 
MRI_snacks_128	 1	 2	 03	 2	 6	 3.101649e+01	 BagaleShtuhim.bmp	 BambaNugat.bmp	 13	 9	 0	 b	 1	 0	 687.78	 3.76	 3.82	 3.219995e+01	 
MRI_snacks_128	 1	 2	 03	 2	 7	 3.401654e+01	 Kitkat.bmp	 ChocolateParaCookies5.bmp	 7	 17	 0	 y	 1	 1	 768.72	 3.91	 2.71	 3.528332e+01	 
MRI_snacks_128	 1	 2	 03	 2	 8	 3.701662e+01	 KashitSour.bmp	 BisliBbq.bmp	 48	 53	 1	 y	 2	 0	 1046.64	 0.09	 0.07	 3.856673e+01	 
MRI_snacks_128	 1	 2	 03	 2	 9	 4.601757e+01	 ClickBisquit2.bmp	 Mekupelet.bmp	 18	 11	 0	 y	 1	 1	 824.68	 2.67	 3.78	 4.733469e+01	 
MRI_snacks_128	 1	 2	 03	 2	 10	 4.901808e+01	 KinderBuenoBrown3.bmp	 Kitkat.bmp	 8	 7	 1	 b	 1	 1	 754.17	 3.84	 3.91	 5.026855e+01	 
MRI_snacks_128	 1	 2	 03	 2	 11	 5.901983e+01	 CrunchBisquitBrown3.bmp	 Keifli.bmp	 6	 55	 1	 b	 4	 1	 829.43	 4.80	 0.07	 6.035364e+01	 
MRI_snacks_128	 1	 2	 03	 2	 12	 6.402073e+01	 Keifli.bmp	 KinderBuenoWhite2.bmp	 55	 5	 0	 y	 4	 1	 673.56	 0.07	 4.80	 6.518778e+01	 
MRI_snacks_128	 1	 2	 03	 2	 13	 6.902168e+01	 CrunchBisquitWhite2.bmp	 KinderBuenoBrown3.bmp	 10	 8	 0	 y	 1	 1	 708.57	 3.80	 3.84	 7.023404e+01	 
MRI_snacks_128	 1	 2	 03	 2	 14	 7.702301e+01	 Bamba.bmp	 KinderJoy.bmp	 15	 14	 0	 y	 1	 1	 699.25	 3.62	 3.73	 7.822340e+01	 
MRI_snacks_128	 1	 2	 03	 2	 15	 8.402421e+01	 Tapuchips.bmp	 Bounty.bmp	 54	 44	 1	 b	 2	 1	 684.04	 0.07	 0.13	 8.520790e+01	 
MRI_snacks_128	 1	 2	 03	 2	 16	 8.802498e+01	 Cheetos.bmp	 DoritosSourSpicy.bmp	 50	 49	 0	 b	 2	 0	 708.28	 0.09	 0.09	 8.922524e+01	 
MRI_snacks_128	 1	 2	 03	 2	 17	 9.102542e+01	 BisliBbq.bmp	 HispusimShatiah.bmp	 53	 46	 0	 b	 2	 0	 923.85	 0.07	 0.11	 9.244255e+01	 
MRI_snacks_128	 1	 2	 03	 2	 18	 9.601743e+01	 KinderJoy.bmp	 CrunchBisquitWhite2.bmp	 14	 10	 1	 b	 1	 1	 640.84	 3.73	 3.80	 9.716008e+01	 
MRI_snacks_128	 1	 2	 03	 2	 19	 9.901744e+01	 KashitSour.bmp	 BabyDoll.bmp	 48	 52	 1	 y	 2	 0	 585.81	 0.09	 0.07	 1.001105e+02	 
MRI_snacks_128	 1	 2	 03	 2	 20	 1.070174e+02	 DoritosSourSpicy.bmp	 Bounty.bmp	 49	 44	 1	 b	 2	 1	 914.85	 0.09	 0.13	 1.084344e+02	 
MRI_snacks_128	 1	 2	 03	 2	 21	 1.130174e+02	 HispusimShatiah.bmp	 Bounty.bmp	 46	 44	 1	 b	 2	 1	 1067.87	 0.11	 0.13	 1.145845e+02	 
MRI_snacks_128	 1	 2	 03	 2	 22	 1.180175e+02	 DoritosSourSpicy.bmp	 BisliBbq.bmp	 49	 53	 1	 y	 2	 0	 963.72	 0.09	 0.07	 1.194845e+02	 
MRI_snacks_128	 1	 2	 03	 2	 23	 1.230178e+02	 GumiSnakes3.bmp	 KifkefMaklot2.bmp	 51	 45	 1	 y	 2	 0	 917.44	 0.09	 0.11	 1.244346e+02	 
MRI_snacks_128	 1	 2	 03	 2	 24	 1.260178e+02	 Tapuchips.bmp	 Cheetos.bmp	 54	 50	 1	 b	 2	 1	 753.48	 0.07	 0.09	 1.272680e+02	 
MRI_snacks_128	 1	 2	 03	 2	 25	 1.400180e+02	 KifkefMaklot2.bmp	 Dubonim.bmp	 45	 43	 0	 b	 2	 0	 803.26	 0.11	 0.13	 1.413181e+02	 
MRI_snacks_128	 1	 2	 03	 2	 26	 1.430181e+02	 Bamba.bmp	 Mekupelet.bmp	 15	 11	 0	 y	 1	 1	 808.17	 3.62	 3.78	 1.443179e+02	 
MRI_snacks_128	 1	 2	 03	 2	 27	 1.470185e+02	 BagaleShtuhim.bmp	 Taami.bmp	 13	 16	 0	 y	 1	 1	 800.76	 3.76	 2.73	 1.483190e+02	 
MRI_snacks_128	 1	 2	 03	 2	 28	 1.510193e+02	 BambaSweet.bmp	 DoritosSourSpicy.bmp	 47	 49	 0	 b	 2	 0	 633.01	 0.09	 0.09	 1.521530e+02	 
MRI_snacks_128	 1	 2	 03	 2	 29	 1.540198e+02	 KashitSour.bmp	 BambaSweet.bmp	 48	 47	 1	 b	 2	 1	 1085.48	 0.09	 0.09	 1.556035e+02	 
MRI_snacks_128	 1	 2	 03	 2	 30	 1.570203e+02	 ChocolateParaCookies5.bmp	 Apropo.bmp	 17	 12	 1	 b	 1	 1	 812.96	 2.71	 3.76	 1.583374e+02	 
MRI_snacks_128	 1	 2	 03	 2	 31	 1.630213e+02	 Cheetos.bmp	 GumiSnakes3.bmp	 50	 51	 0	 b	 2	 0	 672.94	 0.09	 0.09	 1.641883e+02	 
MRI_snacks_128	 1	 2	 03	 2	 32	 1.690224e+02	 HispusimShatiah.bmp	 Cheetos.bmp	 46	 50	 1	 y	 2	 0	 891.84	 0.11	 0.09	 1.704061e+02	 
MRI_snacks_128	 1	 2	 03	 2	 33	 1.720229e+02	 Tapuchips.bmp	 KifkefMaklot2.bmp	 54	 45	 1	 y	 2	 0	 862.37	 0.07	 0.11	 1.733852e+02	 
MRI_snacks_128	 1	 2	 03	 2	 34	 1.750234e+02	 Tapuchips.bmp	 BabyDoll.bmp	 54	 52	 1	 b	 2	 1	 750.86	 0.07	 0.07	 1.762738e+02	 
MRI_snacks_128	 1	 2	 03	 2	 35	 1.790241e+02	 KinderBuenoBrown3.bmp	 BagaleShtuhim.bmp	 8	 13	 1	 b	 1	 1	 680.16	 3.84	 3.76	 1.802020e+02	 
MRI_snacks_128	 1	 2	 03	 2	 36	 1.820246e+02	 ClickBisquit2.bmp	 ChocolateParaCookies5.bmp	 18	 17	 0	 y	 1	 1	 778.61	 2.67	 2.71	 1.833021e+02	 
MRI_snacks_128	 1	 2	 03	 2	 37	 1.850252e+02	 ClickBisquit2.bmp	 KinderBuenoBrown3.bmp	 18	 8	 0	 b	 1	 0	 874.10	 2.67	 3.84	 1.863921e+02	 
MRI_snacks_128	 1	 2	 03	 2	 38	 1.880187e+02	 Kitkat.bmp	 BambaNugat.bmp	 7	 9	 0	 b	 1	 0	 780.59	 3.91	 3.82	 1.893022e+02	 
