subjectID	scanner	order	block	run	trial	onsettime	ImageLeft	ImageRight	bidIndexLeft	bidIndexRight	IsleftGo	Response	PairType	Outcome	RT	bidLeft	bidRight	ixationTime	
MRI_snacks_105	 1	 1	 03	 1	 1	 2.032768e+00	 Keifli.bmp	 Apropo.bmp	 14	 7	 0	 b	 1	 0	 1296.54	 6.93	 7.67	 3.828533e+00	 
MRI_snacks_105	 1	 1	 03	 1	 2	 6.032818e+00	 Bounty.bmp	 BagaleShtuhim.bmp	 53	 48	 1	 y	 2	 0	 1003.49	 3.31	 3.73	 7.533037e+00	 
MRI_snacks_105	 1	 1	 03	 1	 3	 1.303300e+01	 Egozi.bmp	 WerthersOriginal.bmp	 50	 51	 1	 y	 2	 0	 1270.30	 3.38	 3.38	 1.479978e+01	 
MRI_snacks_105	 1	 1	 03	 1	 4	 1.603292e+01	 BisliOnion.bmp	 BambaNugat.bmp	 45	 46	 1	 x	 2	 999	 999000.00	 3.84	 3.80	 1.803096e+01	 
MRI_snacks_105	 1	 1	 03	 1	 5	 2.103126e+01	 WerthersOriginal.bmp	 Bounty.bmp	 51	 53	 0	 b	 2	 0	 863.05	 3.38	 3.31	 2.238330e+01	 
MRI_snacks_105	 1	 1	 03	 1	 6	 3.101620e+01	 Mars.bmp	 ChocolateParaCookies5.bmp	 17	 10	 0	 y	 1	 1	 822.11	 6.56	 7.51	 3.235020e+01	 
MRI_snacks_105	 1	 1	 03	 1	 7	 3.401655e+01	 Halva2.bmp	 KifkefMaklot2.bmp	 13	 8	 1	 y	 1	 0	 1053.76	 6.98	 7.60	 3.558405e+01	 
MRI_snacks_105	 1	 1	 03	 1	 8	 3.701712e+01	 Tapuchips.bmp	 Keifli.bmp	 12	 14	 1	 b	 1	 1	 778.20	 7.02	 6.93	 3.830122e+01	 
MRI_snacks_105	 1	 1	 03	 1	 9	 4.602092e+01	 DoritosSourSpicy.bmp	 Tapuchips.bmp	 9	 12	 0	 y	 1	 1	 987.42	 7.58	 7.02	 4.751945e+01	 
MRI_snacks_105	 1	 1	 03	 1	 10	 4.901955e+01	 Mekupelet.bmp	 BisliGrill.bmp	 47	 43	 1	 y	 2	 0	 1008.75	 3.78	 4.24	 5.053671e+01	 
MRI_snacks_105	 1	 1	 03	 1	 11	 5.902118e+01	 Tapuchips.bmp	 Mars.bmp	 12	 17	 1	 y	 1	 0	 1099.12	 7.02	 6.56	 6.062182e+01	 
MRI_snacks_105	 1	 1	 03	 1	 12	 6.402212e+01	 Apropo.bmp	 Taami.bmp	 7	 16	 1	 b	 1	 1	 622.19	 7.67	 6.64	 6.515053e+01	 
MRI_snacks_105	 1	 1	 03	 1	 13	 6.902294e+01	 BisliOnion.bmp	 Smarties.bmp	 45	 49	 1	 b	 2	 1	 1182.37	 3.84	 3.42	 7.070668e+01	 
MRI_snacks_105	 1	 1	 03	 1	 14	 7.702441e+01	 ClickBisquit2.bmp	 Mars.bmp	 15	 17	 1	 b	 1	 1	 930.90	 6.87	 6.56	 7.845817e+01	 
MRI_snacks_105	 1	 1	 03	 1	 15	 8.402558e+01	 Twist.bmp	 Hit.bmp	 56	 5	 0	 x	 4	 999	 999000.00	 2.78	 9.11	 8.602620e+01	 
MRI_snacks_105	 1	 1	 03	 1	 16	 8.802624e+01	 Smarties.bmp	 CrunchShokoVanil.bmp	 49	 52	 0	 b	 2	 0	 1041.07	 3.42	 3.36	 8.956750e+01	 
MRI_snacks_105	 1	 1	 03	 1	 17	 9.102676e+01	 Bamba.bmp	 Popco.bmp	 55	 6	 0	 b	 4	 0	 1064.55	 3.20	 8.58	 9.259398e+01	 
MRI_snacks_105	 1	 1	 03	 1	 18	 9.602764e+01	 Loacker.bmp	 DoritosSourSpicy.bmp	 18	 9	 1	 y	 1	 0	 1051.64	 6.51	 7.58	 9.758416e+01	 
MRI_snacks_105	 1	 1	 03	 1	 19	 9.902821e+01	 Egozi.bmp	 BisliGrill.bmp	 50	 43	 1	 y	 2	 0	 1103.09	 3.38	 4.24	 1.006343e+02	 
MRI_snacks_105	 1	 1	 03	 1	 20	 1.070295e+02	 ClickBisquit2.bmp	 ChocolateParaSucariotKoftzot2.bmp	 15	 11	 1	 b	 1	 1	 862.77	 6.87	 7.38	 1.083844e+02	 
MRI_snacks_105	 1	 1	 03	 1	 21	 1.130306e+02	 Mekupelet.bmp	 Smarties.bmp	 47	 49	 1	 b	 2	 1	 1024.72	 3.78	 3.42	 1.145511e+02	 
MRI_snacks_105	 1	 1	 03	 1	 22	 1.180315e+02	 BisliGrill.bmp	 Bounty.bmp	 43	 53	 0	 b	 2	 0	 788.85	 4.24	 3.31	 1.193179e+02	 
MRI_snacks_105	 1	 1	 03	 1	 23	 1.230323e+02	 WerthersOriginal.bmp	 CrunchShokoVanil.bmp	 51	 52	 0	 b	 2	 0	 985.99	 3.38	 3.36	 1.245180e+02	 
MRI_snacks_105	 1	 1	 03	 1	 24	 1.260178e+02	 BisliGrill.bmp	 CrunchShokoVanil.bmp	 43	 52	 0	 b	 2	 0	 845.55	 4.24	 3.36	 1.273680e+02	 
MRI_snacks_105	 1	 1	 03	 1	 25	 1.400187e+02	 Loacker.bmp	 Keifli.bmp	 18	 14	 1	 b	 1	 1	 1006.65	 6.51	 6.93	 1.415357e+02	 
MRI_snacks_105	 1	 1	 03	 1	 26	 1.430191e+02	 Apropo.bmp	 DoritosSourSpicy.bmp	 7	 9	 1	 b	 1	 1	 781.19	 7.67	 7.58	 1.443030e+02	 
MRI_snacks_105	 1	 1	 03	 1	 27	 1.470199e+02	 Keifli.bmp	 ClickBisquit2.bmp	 14	 15	 0	 y	 1	 1	 669.42	 6.93	 6.87	 1.482015e+02	 
MRI_snacks_105	 1	 1	 03	 1	 28	 1.510206e+02	 WerthersOriginal.bmp	 Mekupelet.bmp	 51	 47	 0	 b	 2	 0	 666.71	 3.38	 3.78	 1.521877e+02	 
MRI_snacks_105	 1	 1	 03	 1	 29	 1.540223e+02	 KifkefMaklot2.bmp	 Tapuchips.bmp	 8	 12	 0	 y	 1	 1	 1179.05	 7.60	 7.02	 1.557049e+02	 
MRI_snacks_105	 1	 1	 03	 1	 30	 1.570216e+02	 Tapuchips.bmp	 Taami.bmp	 12	 16	 1	 b	 1	 1	 783.76	 7.02	 6.64	 1.583053e+02	 
MRI_snacks_105	 1	 1	 03	 1	 31	 1.630226e+02	 WerthersOriginal.bmp	 Snickers.bmp	 51	 44	 0	 b	 2	 0	 848.69	 3.38	 3.89	 1.643730e+02	 
MRI_snacks_105	 1	 1	 03	 1	 32	 1.690236e+02	 ChocolateParaSucariotKoftzot2.bmp	 Apropo.bmp	 11	 7	 0	 y	 1	 1	 1047.67	 7.38	 7.67	 1.705742e+02	 
MRI_snacks_105	 1	 1	 03	 1	 33	 1.720242e+02	 Keifli.bmp	 ChocolateParaCookies5.bmp	 14	 10	 0	 y	 1	 1	 1384.16	 6.93	 7.51	 1.739077e+02	 
MRI_snacks_105	 1	 1	 03	 1	 34	 1.750247e+02	 PesekZman.bmp	 BisliOnion.bmp	 54	 45	 0	 y	 2	 1	 947.58	 3.22	 3.84	 1.764752e+02	 
MRI_snacks_105	 1	 1	 03	 1	 35	 1.790254e+02	 KifkefMaklot2.bmp	 ChocolateParaCookies5.bmp	 8	 10	 0	 b	 1	 0	 1073.87	 7.60	 7.51	 1.806020e+02	 
MRI_snacks_105	 1	 1	 03	 1	 36	 1.820259e+02	 BambaNugat.bmp	 Snickers.bmp	 46	 44	 0	 b	 2	 0	 1357.41	 3.80	 3.89	 1.838852e+02	 
MRI_snacks_105	 1	 1	 03	 1	 37	 1.850264e+02	 Mekupelet.bmp	 PesekZman.bmp	 47	 54	 1	 b	 2	 1	 1236.89	 3.78	 3.22	 1.867687e+02	 
MRI_snacks_105	 1	 1	 03	 1	 38	 1.880270e+02	 Bounty.bmp	 Smarties.bmp	 53	 49	 1	 x	 2	 999	 999000.00	 3.31	 3.42	 1.900275e+02	 
