subjectID	scanner	order	block	run	trial	onsettime	ImageLeft	ImageRight	bidIndexLeft	bidIndexRight	IsleftGo	Response	PairType	Outcome	RT	bidLeft	bidRight	ixationTime	
MRI_snacks_125	 1	 1	 01	 2	 1	 2.021180e+00	 ClickBlackWhite3.bmp	 BambaSweet.bmp	 5	 56	 1	 b	 4	 1	 859.40	 7.56	 0.07	 3.381356e+00	 
MRI_snacks_125	 1	 1	 01	 2	 2	 5.021190e+00	 GumiSnakes3.bmp	 Keifli.bmp	 50	 43	 1	 y	 2	 0	 990.38	 0.20	 1.69	 6.504727e+00	 
MRI_snacks_125	 1	 1	 01	 2	 3	 8.021313e+00	 CrunchBisquitWhite2.bmp	 ClickXLbrown4.bmp	 17	 10	 0	 b	 1	 0	 1252.25	 6.47	 7.02	 9.771435e+00	 
MRI_snacks_125	 1	 1	 01	 2	 4	 1.302136e+01	 ClickBalls5.bmp	 CrunchBisquitBrown3.bmp	 15	 11	 1	 b	 1	 1	 1222.21	 6.96	 7.02	 1.473822e+01	 
MRI_snacks_125	 1	 1	 01	 2	 5	 1.802140e+01	 ChocolateParaSucariotKoftzot2.bmp	 ClickBisquit2.bmp	 9	 7	 0	 y	 1	 1	 1156.16	 7.09	 7.13	 1.967163e+01	 
MRI_snacks_125	 1	 1	 01	 2	 6	 2.502153e+01	 GumiSnakes3.bmp	 SkittlesSour4.bmp	 50	 49	 1	 y	 2	 0	 775.03	 0.20	 0.64	 2.628832e+01	 
MRI_snacks_125	 1	 1	 01	 2	 7	 2.902158e+01	 ClickXLbrown4.bmp	 PesekZman.bmp	 10	 14	 1	 b	 1	 1	 1008.98	 7.02	 6.98	 3.052171e+01	 
MRI_snacks_125	 1	 1	 01	 2	 8	 3.202163e+01	 Halva2.bmp	 SkittlesFruits2.bmp	 48	 45	 0	 y	 2	 1	 1010.95	 0.67	 1.67	 3.352187e+01	 
MRI_snacks_125	 1	 1	 01	 2	 9	 3.902168e+01	 Halva2.bmp	 BisliOnion.bmp	 48	 53	 0	 y	 2	 1	 890.90	 0.67	 0.07	 4.040516e+01	 
MRI_snacks_125	 1	 1	 01	 2	 10	 4.302176e+01	 SkittlesFruits2.bmp	 DoritosNatural.bmp	 45	 54	 1	 y	 2	 0	 1306.81	 1.67	 0.07	 4.482209e+01	 
MRI_snacks_125	 1	 1	 01	 2	 11	 4.602191e+01	 BambaNugat.bmp	 Twix.bmp	 18	 16	 1	 b	 1	 1	 1198.66	 6.47	 6.89	 4.770555e+01	 
MRI_snacks_125	 1	 1	 01	 2	 12	 5.002530e+01	 BagaleShtuhim.bmp	 Halva2.bmp	 47	 48	 1	 b	 2	 1	 977.28	 0.80	 0.67	 5.148957e+01	 
MRI_snacks_125	 1	 1	 01	 2	 13	 5.402199e+01	 DoritosGrill.bmp	 ClickBlackWhite3.bmp	 55	 5	 0	 y	 4	 1	 857.58	 0.07	 7.56	 5.537367e+01	 
MRI_snacks_125	 1	 1	 01	 2	 14	 5.902203e+01	 Halva2.bmp	 ChocolateParaMarir2.bmp	 48	 44	 0	 y	 2	 1	 1129.54	 0.67	 1.67	 6.064129e+01	 
MRI_snacks_125	 1	 1	 01	 2	 15	 6.302211e+01	 Hit.bmp	 ClickBalls5.bmp	 8	 15	 0	 y	 1	 1	 1144.46	 7.13	 6.96	 6.465874e+01	 
MRI_snacks_125	 1	 1	 01	 2	 16	 6.702217e+01	 BisliOnion.bmp	 Keifli.bmp	 53	 43	 1	 y	 2	 0	 1149.43	 0.07	 1.69	 6.867240e+01	 
MRI_snacks_125	 1	 1	 01	 2	 17	 7.002217e+01	 BagaleShtuhim.bmp	 Keifli.bmp	 47	 43	 1	 x	 2	 999	 999000.00	 0.80	 1.69	 7.202243e+01	 
MRI_snacks_125	 1	 1	 01	 2	 18	 8.002241e+01	 ChocolateParaSucariotKoftzot2.bmp	 Twist.bmp	 9	 12	 0	 b	 1	 0	 707.16	 7.09	 7.00	 8.122821e+01	 
MRI_snacks_125	 1	 1	 01	 2	 19	 8.402231e+01	 Shugi.bmp	 GumiSnakes3.bmp	 46	 50	 0	 b	 2	 0	 631.25	 1.67	 0.20	 8.514550e+01	 
MRI_snacks_125	 1	 1	 01	 2	 20	 8.702237e+01	 ChocolateParaMarir2.bmp	 DoritosNatural.bmp	 44	 54	 1	 y	 2	 0	 783.21	 1.67	 0.07	 8.830603e+01	 
MRI_snacks_125	 1	 1	 01	 2	 21	 9.002239e+01	 Hit.bmp	 ClickXLbrown4.bmp	 8	 10	 0	 b	 1	 0	 825.18	 7.13	 7.02	 9.134657e+01	 
MRI_snacks_125	 1	 1	 01	 2	 22	 9.402247e+01	 CrunchBisquitWhite2.bmp	 Twist.bmp	 17	 12	 0	 b	 1	 0	 1094.09	 6.47	 7.00	 9.561411e+01	 
MRI_snacks_125	 1	 1	 01	 2	 23	 1.000226e+02	 Halva2.bmp	 Popco.bmp	 48	 52	 0	 y	 2	 1	 1145.00	 0.67	 0.13	 1.016651e+02	 
MRI_snacks_125	 1	 1	 01	 2	 24	 1.030226e+02	 ClickBalls5.bmp	 CrunchBisquitWhite2.bmp	 15	 17	 1	 b	 1	 1	 1166.98	 6.96	 6.47	 1.046894e+02	 
MRI_snacks_125	 1	 1	 01	 2	 25	 1.060227e+02	 ClickBisquit2.bmp	 CrunchBisquitBrown3.bmp	 7	 11	 1	 b	 1	 1	 1139.85	 7.13	 7.02	 1.076563e+02	 
MRI_snacks_125	 1	 1	 01	 2	 26	 1.100227e+02	 Halva2.bmp	 GumiSnakes3.bmp	 48	 50	 0	 y	 2	 1	 702.82	 0.67	 0.20	 1.112228e+02	 
MRI_snacks_125	 1	 1	 01	 2	 27	 1.130169e+02	 Twix.bmp	 Twist.bmp	 16	 12	 0	 b	 1	 0	 862.71	 6.89	 7.00	 1.143839e+02	 
MRI_snacks_125	 1	 1	 01	 2	 28	 1.160228e+02	 BambaNugat.bmp	 ChocolateParaSucariotKoftzot2.bmp	 18	 9	 1	 b	 1	 1	 898.84	 6.47	 7.09	 1.174177e+02	 
MRI_snacks_125	 1	 1	 01	 2	 29	 1.300230e+02	 DoritosSourSpicy.bmp	 BisliOnion.bmp	 51	 53	 0	 b	 2	 0	 1283.53	 0.13	 0.07	 1.318065e+02	 
MRI_snacks_125	 1	 1	 01	 2	 30	 1.400231e+02	 Popco.bmp	 DoritosSourSpicy.bmp	 52	 51	 1	 y	 2	 0	 828.43	 0.13	 0.13	 1.413399e+02	 
MRI_snacks_125	 1	 1	 01	 2	 31	 1.460232e+02	 SkittlesFruits2.bmp	 Keifli.bmp	 45	 43	 1	 y	 2	 0	 1067.36	 1.67	 1.69	 1.475902e+02	 
MRI_snacks_125	 1	 1	 01	 2	 32	 1.500234e+02	 ClickBisquit2.bmp	 Twix.bmp	 7	 16	 1	 b	 1	 1	 1054.17	 7.13	 6.89	 1.515737e+02	 
MRI_snacks_125	 1	 1	 01	 2	 33	 1.560243e+02	 PesekZman.bmp	 BambaNugat.bmp	 14	 18	 0	 y	 1	 1	 1043.23	 6.98	 6.47	 1.575582e+02	 
MRI_snacks_125	 1	 1	 01	 2	 34	 1.600233e+02	 DoritosNatural.bmp	 BisliOnion.bmp	 54	 53	 0	 y	 2	 1	 1394.21	 0.07	 0.07	 1.619090e+02	 
MRI_snacks_125	 1	 1	 01	 2	 35	 1.660235e+02	 ClickBisquit2.bmp	 CrunchBisquitWhite2.bmp	 7	 17	 1	 b	 1	 1	 1123.07	 7.13	 6.47	 1.676433e+02	 
MRI_snacks_125	 1	 1	 01	 2	 36	 1.780236e+02	 Twix.bmp	 KinderBuenoBrown3.bmp	 16	 13	 0	 b	 1	 0	 1106.93	 6.89	 7.00	 1.796287e+02	 
MRI_snacks_125	 1	 1	 01	 2	 37	 1.810120e+02	 Shugi.bmp	 ChocolateParaMarir2.bmp	 46	 44	 0	 b	 2	 0	 1212.58	 1.67	 1.67	 1.827293e+02	 
MRI_snacks_125	 1	 1	 01	 2	 38	 1.880165e+02	 ClickBalls5.bmp	 Twix.bmp	 15	 16	 1	 b	 1	 1	 1025.08	 6.96	 6.89	 1.895471e+02	 
