subjectID	scanner	order	block	run	trial	onsettime	ImageLeft	ImageRight	bidIndexLeft	bidIndexRight	IsleftGo	Response	PairType	Outcome	RT	bidLeft	bidRight	ixationTime	
MRI_snacks_111	 1	 1	 01	 2	 1	 2.012696e+00	 Bounty.bmp	 BambaSweet.bmp	 53	 43	 1	 b	 2	 1	 968.36	 2.20	 2.71	 3.479878e+00	 
MRI_snacks_111	 1	 1	 01	 2	 2	 5.013240e+00	 Tapuchips.bmp	 Egozi.bmp	 51	 47	 0	 b	 2	 0	 1119.81	 2.27	 2.51	 6.643727e+00	 
MRI_snacks_111	 1	 1	 01	 2	 3	 8.013754e+00	 HappyHippo.bmp	 BisliGrill.bmp	 12	 8	 1	 y	 1	 0	 823.29	 5.93	 6.40	 9.347434e+00	 
MRI_snacks_111	 1	 1	 01	 2	 4	 1.301467e+01	 Kitkat.bmp	 WerthersOriginal.bmp	 9	 13	 0	 y	 1	 1	 998.40	 6.27	 5.91	 1.451495e+01	 
MRI_snacks_111	 1	 1	 01	 2	 5	 1.801554e+01	 Hit.bmp	 Smarties.bmp	 46	 50	 0	 y	 2	 1	 871.49	 2.69	 2.33	 1.939386e+01	 
MRI_snacks_111	 1	 1	 01	 2	 6	 2.501672e+01	 Taami.bmp	 BambaSweet.bmp	 52	 43	 1	 b	 2	 1	 897.33	 2.22	 2.71	 2.641720e+01	 
MRI_snacks_111	 1	 1	 01	 2	 7	 2.901739e+01	 WerthersOriginal.bmp	 BisliBbq.bmp	 13	 11	 1	 y	 1	 0	 995.66	 5.91	 5.96	 3.051800e+01	 
MRI_snacks_111	 1	 1	 01	 2	 8	 3.201794e+01	 BisliBbq.bmp	 SkittlesSour4.bmp	 11	 15	 0	 b	 1	 0	 862.10	 5.96	 5.87	 3.338505e+01	 
MRI_snacks_111	 1	 1	 01	 2	 9	 3.901916e+01	 Kitkat.bmp	 Apropo.bmp	 9	 10	 0	 y	 1	 1	 787.89	 6.27	 6.04	 4.031079e+01	 
MRI_snacks_111	 1	 1	 01	 2	 10	 4.301984e+01	 BisliBbq.bmp	 HappyHippo.bmp	 11	 12	 0	 b	 1	 0	 785.22	 5.96	 5.93	 4.430361e+01	 
MRI_snacks_111	 1	 1	 01	 2	 11	 4.602039e+01	 BambaNugat.bmp	 Tapuchips.bmp	 44	 51	 1	 y	 2	 0	 1175.67	 2.71	 2.27	 4.769412e+01	 
MRI_snacks_111	 1	 1	 01	 2	 12	 5.002104e+01	 CrunchShokoVanil.bmp	 Smarties.bmp	 49	 50	 0	 y	 2	 1	 892.00	 2.36	 2.33	 5.141092e+01	 
MRI_snacks_111	 1	 1	 01	 2	 13	 5.402178e+01	 BisliPizza3.bmp	 SkittlesSour4.bmp	 14	 15	 0	 b	 1	 0	 751.27	 5.89	 5.87	 5.527223e+01	 
MRI_snacks_111	 1	 1	 01	 2	 14	 5.902264e+01	 Tapuchips.bmp	 Taami.bmp	 51	 52	 0	 b	 2	 0	 841.41	 2.27	 2.22	 6.036104e+01	 
MRI_snacks_111	 1	 1	 01	 2	 15	 6.302337e+01	 DoritosGrill.bmp	 HappyHippo.bmp	 16	 12	 0	 y	 1	 1	 839.68	 5.56	 5.93	 6.436112e+01	 
MRI_snacks_111	 1	 1	 01	 2	 16	 6.702407e+01	 ClickXLwhite4.bmp	 CrunchShokoVanil.bmp	 45	 49	 1	 b	 2	 1	 785.98	 2.71	 2.36	 6.830792e+01	 
MRI_snacks_111	 1	 1	 01	 2	 17	 7.001093e+01	 Tortit.bmp	 Smarties.bmp	 48	 50	 0	 y	 2	 1	 913.11	 2.36	 2.33	 7.142793e+01	 
MRI_snacks_111	 1	 1	 01	 2	 18	 8.001115e+01	 Egozi.bmp	 Shugi.bmp	 47	 54	 1	 y	 2	 0	 994.90	 2.51	 2.16	 8.151139e+01	 
MRI_snacks_111	 1	 1	 01	 2	 19	 8.401115e+01	 KinderBuenoWhite2.bmp	 HispusimShatiah.bmp	 5	 56	 1	 b	 4	 1	 846.90	 6.56	 1.84	 8.536146e+01	 
MRI_snacks_111	 1	 1	 01	 2	 20	 8.701115e+01	 Hit.bmp	 Egozi.bmp	 46	 47	 0	 y	 2	 1	 1044.90	 2.69	 2.51	 8.856146e+01	 
MRI_snacks_111	 1	 1	 01	 2	 21	 9.001136e+01	 BisliOnion.bmp	 BisliBbq.bmp	 18	 11	 1	 y	 1	 0	 783.68	 5.49	 5.96	 9.129525e+01	 
MRI_snacks_111	 1	 1	 01	 2	 22	 9.401211e+01	 DoritosGrill.bmp	 WerthersOriginal.bmp	 16	 13	 0	 y	 1	 1	 953.94	 5.56	 5.91	 9.546252e+01	 
MRI_snacks_111	 1	 1	 01	 2	 23	 1.000131e+02	 Hit.bmp	 Bounty.bmp	 46	 53	 0	 b	 2	 0	 1022.98	 2.69	 2.20	 1.015470e+02	 
MRI_snacks_111	 1	 1	 01	 2	 24	 1.030137e+02	 Tortit.bmp	 ClickXLwhite4.bmp	 48	 45	 0	 y	 2	 1	 925.38	 2.36	 2.71	 1.044474e+02	 
MRI_snacks_111	 1	 1	 01	 2	 25	 1.060142e+02	 Kitkat.bmp	 Bamba.bmp	 9	 7	 0	 y	 1	 1	 820.87	 6.27	 6.47	 1.073451e+02	 
MRI_snacks_111	 1	 1	 01	 2	 26	 1.100149e+02	 Bamba.bmp	 DoritosGrill.bmp	 7	 16	 1	 b	 1	 1	 694.18	 6.47	 5.56	 1.112153e+02	 
MRI_snacks_111	 1	 1	 01	 2	 27	 1.130154e+02	 CrunchShokoVanil.bmp	 Taami.bmp	 49	 52	 0	 y	 2	 1	 829.67	 2.36	 2.22	 1.143492e+02	 
MRI_snacks_111	 1	 1	 01	 2	 28	 1.160159e+02	 BambaNugat.bmp	 Hit.bmp	 44	 46	 1	 b	 2	 1	 1104.15	 2.71	 2.69	 1.176285e+02	 
MRI_snacks_111	 1	 1	 01	 2	 29	 1.300184e+02	 BisliPizza3.bmp	 BisliOnion.bmp	 14	 18	 0	 b	 1	 0	 901.70	 5.89	 5.49	 1.314188e+02	 
MRI_snacks_111	 1	 1	 01	 2	 30	 1.400201e+02	 Bounty.bmp	 CrunchShokoVanil.bmp	 53	 49	 1	 b	 2	 1	 838.98	 2.20	 2.36	 1.413622e+02	 
MRI_snacks_111	 1	 1	 01	 2	 31	 1.460212e+02	 Apropo.bmp	 BisliPizza3.bmp	 10	 14	 1	 b	 1	 1	 1161.89	 6.04	 5.89	 1.476788e+02	 
MRI_snacks_111	 1	 1	 01	 2	 32	 1.500218e+02	 Smarties.bmp	 BambaSweet.bmp	 50	 43	 1	 b	 2	 1	 908.26	 2.33	 2.71	 1.514290e+02	 
MRI_snacks_111	 1	 1	 01	 2	 33	 1.560229e+02	 Hit.bmp	 ClickXLwhite4.bmp	 46	 45	 0	 y	 2	 1	 975.16	 2.69	 2.71	 1.574957e+02	 
MRI_snacks_111	 1	 1	 01	 2	 34	 1.600236e+02	 Bamba.bmp	 BisliBbq.bmp	 7	 11	 1	 b	 1	 1	 783.49	 6.47	 5.96	 1.613073e+02	 
MRI_snacks_111	 1	 1	 01	 2	 35	 1.660246e+02	 Loacker.bmp	 Twist.bmp	 6	 55	 1	 b	 4	 1	 1246.43	 6.51	 2.00	 1.677624e+02	 
MRI_snacks_111	 1	 1	 01	 2	 36	 1.780136e+02	 Bamba.bmp	 BisliGrill.bmp	 7	 8	 1	 y	 1	 0	 1069.44	 6.47	 6.40	 1.795938e+02	 
MRI_snacks_111	 1	 1	 01	 2	 37	 1.810124e+02	 Apropo.bmp	 BisliGrill.bmp	 10	 8	 1	 y	 1	 0	 1089.63	 6.04	 6.40	 1.826127e+02	 
MRI_snacks_111	 1	 1	 01	 2	 38	 1.880132e+02	 Apropo.bmp	 Mekupelet.bmp	 10	 17	 1	 b	 1	 1	 799.88	 6.04	 5.51	 1.893128e+02	 
