subjectID	scanner	order	block	run	trial	onsettime	ImageLeft	ImageRight	bidIndexLeft	bidIndexRight	IsleftGo	Response	PairType	Outcome	RT	bidLeft	bidRight	ixationTime	
MRI_snacks_134	 1	 2	 01	 2	 1	 2.020877e+00	 SkittlesSour4.bmp	 KifkefMaklot2.bmp	 53	 49	 0	 y	 2	 1	 808.20	 0.64	 1.60	 3.330441e+00	 
MRI_snacks_134	 1	 2	 01	 2	 2	 5.021464e+00	 GumiWine2.bmp	 Loacker.bmp	 43	 47	 1	 b	 2	 1	 734.65	 1.67	 1.64	 6.255162e+00	 
MRI_snacks_134	 1	 2	 01	 2	 3	 8.012750e+00	 Mars.bmp	 Kitkat.bmp	 18	 17	 0	 y	 1	 1	 934.33	 3.87	 3.87	 9.455666e+00	 
MRI_snacks_134	 1	 2	 01	 2	 4	 1.301292e+01	 BagaleShtuhim.bmp	 KinderJoy.bmp	 8	 10	 1	 b	 1	 1	 830.15	 5.96	 4.91	 1.434630e+01	 
MRI_snacks_134	 1	 2	 01	 2	 5	 1.801291e+01	 BambaNugat.bmp	 CrunchShokoVanil.bmp	 7	 16	 0	 b	 1	 0	 563.19	 5.96	 3.89	 1.907972e+01	 
MRI_snacks_134	 1	 2	 01	 2	 6	 2.501313e+01	 KinderBuenoBrown3.bmp	 BagaleShtuhim.bmp	 12	 8	 0	 y	 1	 1	 641.98	 4.84	 5.96	 2.616318e+01	 
MRI_snacks_134	 1	 2	 01	 2	 7	 2.901316e+01	 Tictac.bmp	 ClickXLwhite4.bmp	 45	 51	 0	 y	 2	 1	 704.90	 1.67	 0.67	 3.021322e+01	 
MRI_snacks_134	 1	 2	 01	 2	 8	 3.201313e+01	 Popco.bmp	 Mars.bmp	 9	 18	 1	 b	 1	 1	 549.95	 5.91	 3.87	 3.306325e+01	 
MRI_snacks_134	 1	 2	 01	 2	 9	 3.901332e+01	 SkittlesSour4.bmp	 GumiWine2.bmp	 53	 43	 0	 y	 2	 1	 609.77	 0.64	 1.67	 4.013009e+01	 
MRI_snacks_134	 1	 2	 01	 2	 10	 4.301339e+01	 CrunchShokoVanil.bmp	 KinderBuenoBrown3.bmp	 16	 12	 1	 y	 1	 0	 662.69	 3.89	 4.84	 4.418018e+01	 
MRI_snacks_134	 1	 2	 01	 2	 11	 4.601337e+01	 ChocolateParaMilk3.bmp	 Smarties.bmp	 54	 50	 1	 b	 2	 1	 1048.72	 0.64	 0.69	 4.756353e+01	 
MRI_snacks_134	 1	 2	 01	 2	 12	 5.001339e+01	 Cheetos.bmp	 Popco.bmp	 13	 9	 0	 y	 1	 1	 730.67	 4.80	 5.91	 5.124701e+01	 
MRI_snacks_134	 1	 2	 01	 2	 13	 5.401347e+01	 KinderJoy.bmp	 Kitkat.bmp	 10	 17	 0	 b	 1	 0	 1027.59	 4.91	 3.87	 5.554712e+01	 
MRI_snacks_134	 1	 2	 01	 2	 14	 5.901427e+01	 Keifli.bmp	 HispusimShatiah.bmp	 6	 55	 1	 b	 4	 1	 826.81	 5.96	 0.62	 6.034682e+01	 
MRI_snacks_134	 1	 2	 01	 2	 15	 6.301502e+01	 KinderBuenoBrown3.bmp	 Kitkat.bmp	 12	 17	 0	 b	 1	 0	 690.06	 4.84	 3.87	 6.419867e+01	 
MRI_snacks_134	 1	 2	 01	 2	 16	 6.701566e+01	 ChocolateParaMilk3.bmp	 SkittlesSour4.bmp	 54	 53	 1	 b	 2	 1	 1110.42	 0.64	 0.64	 6.863057e+01	 
MRI_snacks_134	 1	 2	 01	 2	 17	 7.001615e+01	 ClickBisquit2.bmp	 BagaleShtuhim.bmp	 15	 8	 0	 y	 1	 1	 783.93	 3.89	 5.96	 7.129992e+01	 
MRI_snacks_134	 1	 2	 01	 2	 18	 8.001790e+01	 Keifli.bmp	 KashitSour.bmp	 6	 56	 1	 b	 4	 1	 726.19	 5.96	 0.62	 8.123494e+01	 
MRI_snacks_134	 1	 2	 01	 2	 19	 8.401867e+01	 GumiWine2.bmp	 Tictac.bmp	 43	 45	 1	 b	 2	 1	 691.42	 1.67	 1.67	 8.520231e+01	 
MRI_snacks_134	 1	 2	 01	 2	 20	 8.701923e+01	 BagaleShtuhim.bmp	 BambaNugat.bmp	 8	 7	 1	 y	 1	 0	 935.85	 5.96	 5.96	 8.845292e+01	 
MRI_snacks_134	 1	 2	 01	 2	 21	 9.001977e+01	 GumiWine2.bmp	 SkittlesFruits2.bmp	 43	 52	 1	 b	 2	 1	 661.30	 1.67	 0.67	 9.118084e+01	 
MRI_snacks_134	 1	 2	 01	 2	 22	 9.402034e+01	 Tictac.bmp	 ChocolateParaMilk3.bmp	 45	 54	 0	 y	 2	 1	 794.74	 1.67	 0.64	 9.531425e+01	 
MRI_snacks_134	 1	 2	 01	 2	 23	 1.000214e+02	 SkittlesFruits2.bmp	 CrunchBisquitWhite2.bmp	 52	 48	 0	 y	 2	 1	 861.65	 0.67	 1.64	 1.013810e+02	 
MRI_snacks_134	 1	 2	 01	 2	 24	 1.030143e+02	 BambaNugat.bmp	 Popco.bmp	 7	 9	 0	 b	 1	 0	 671.79	 5.96	 5.91	 1.041889e+02	 
MRI_snacks_134	 1	 2	 01	 2	 25	 1.060142e+02	 KinderJoy.bmp	 Popco.bmp	 10	 9	 0	 y	 1	 1	 705.90	 4.91	 5.91	 1.072228e+02	 
MRI_snacks_134	 1	 2	 01	 2	 26	 1.100143e+02	 CrunchBisquitWhite2.bmp	 SkittlesSour4.bmp	 48	 53	 1	 b	 2	 1	 878.77	 1.64	 0.64	 1.113978e+02	 
MRI_snacks_134	 1	 2	 01	 2	 27	 1.130143e+02	 Bounty.bmp	 ClickBisquit2.bmp	 14	 15	 1	 y	 1	 0	 954.84	 4.38	 3.89	 1.144740e+02	 
MRI_snacks_134	 1	 2	 01	 2	 28	 1.160144e+02	 KifkefMaklot2.bmp	 Loacker.bmp	 49	 47	 1	 b	 2	 1	 726.71	 1.60	 1.64	 1.172478e+02	 
MRI_snacks_134	 1	 2	 01	 2	 29	 1.300145e+02	 SkittlesFruits2.bmp	 ClickXLwhite4.bmp	 52	 51	 0	 y	 2	 1	 708.55	 0.67	 0.67	 1.312271e+02	 
MRI_snacks_134	 1	 2	 01	 2	 30	 1.400147e+02	 Tictac.bmp	 ClickBlackWhite3.bmp	 45	 46	 0	 y	 2	 1	 653.39	 1.67	 1.64	 1.411648e+02	 
MRI_snacks_134	 1	 2	 01	 2	 31	 1.460148e+02	 Popco.bmp	 KinderBuenoBrown3.bmp	 9	 12	 1	 b	 1	 1	 972.28	 5.91	 4.84	 1.474816e+02	 
MRI_snacks_134	 1	 2	 01	 2	 32	 1.500149e+02	 ClickBlackWhite3.bmp	 SkittlesSour4.bmp	 46	 53	 1	 b	 2	 1	 643.21	 1.64	 0.64	 1.511639e+02	 
MRI_snacks_134	 1	 2	 01	 2	 33	 1.560149e+02	 BisliBbq.bmp	 BambaNugat.bmp	 11	 7	 1	 b	 1	 1	 996.21	 4.89	 5.96	 1.575151e+02	 
MRI_snacks_134	 1	 2	 01	 2	 34	 1.600153e+02	 ClickBlackWhite3.bmp	 SkittlesFruits2.bmp	 46	 52	 1	 b	 2	 1	 630.77	 1.64	 0.67	 1.611489e+02	 
MRI_snacks_134	 1	 2	 01	 2	 35	 1.660163e+02	 GumiWine2.bmp	 KinderBuenoWhite2.bmp	 43	 44	 1	 b	 2	 1	 755.82	 1.67	 1.67	 1.672666e+02	 
MRI_snacks_134	 1	 2	 01	 2	 36	 1.780185e+02	 Smarties.bmp	 CrunchBisquitWhite2.bmp	 50	 48	 0	 y	 2	 1	 761.60	 0.69	 1.64	 1.792820e+02	 
MRI_snacks_134	 1	 2	 01	 2	 37	 1.810189e+02	 Cheetos.bmp	 CrunchShokoVanil.bmp	 13	 16	 0	 b	 1	 0	 821.14	 4.80	 3.89	 1.823359e+02	 
MRI_snacks_134	 1	 2	 01	 2	 38	 1.880201e+02	 KinderBuenoBrown3.bmp	 Bounty.bmp	 12	 14	 0	 b	 1	 0	 736.98	 4.84	 4.38	 1.892538e+02	 
