subjectID	scanner	order	block	run	trial	onsettime	ImageLeft	ImageRight	bidIndexLeft	bidIndexRight	IsleftGo	Response	PairType	Outcome	RT	bidLeft	bidRight	ixationTime	
MRI_snacks_116	 1	 2	 01	 1	 1	 2.016466e+00	 BambaNugat.bmp	 CrunchBisquitWhite2.bmp	 12	 8	 0	 y	 1	 1	 739.49	 4.82	 4.87	 3.266935e+00	 
MRI_snacks_116	 1	 2	 01	 1	 2	 6.017181e+00	 Kitkat.bmp	 Popco.bmp	 17	 13	 1	 b	 1	 1	 622.77	 4.29	 4.82	 7.150879e+00	 
MRI_snacks_116	 1	 2	 01	 1	 3	 9.017638e+00	 SkittlesSour4.bmp	 ChocolateParaMarir2.bmp	 18	 11	 0	 y	 1	 1	 1145.31	 3.98	 4.84	 1.066807e+01	 
MRI_snacks_116	 1	 2	 01	 1	 4	 1.401975e+01	 BisliOnion.bmp	 Tapuchips.bmp	 51	 47	 1	 y	 2	 0	 1056.21	 0.60	 0.64	 1.558562e+01	 
MRI_snacks_116	 1	 2	 01	 1	 5	 1.701909e+01	 Bounty.bmp	 SkittlesFruits2.bmp	 10	 14	 0	 b	 1	 0	 840.85	 4.84	 4.82	 1.836939e+01	 
MRI_snacks_116	 1	 2	 01	 1	 6	 2.002078e+01	 Dubonim.bmp	 BisliGrill.bmp	 53	 49	 0	 y	 2	 1	 1007.16	 0.58	 0.62	 2.153666e+01	 
MRI_snacks_116	 1	 2	 01	 1	 7	 3.402208e+01	 GumiSnakes3.bmp	 BisliOnion.bmp	 50	 51	 0	 y	 2	 1	 970.87	 0.62	 0.60	 3.550018e+01	 
MRI_snacks_116	 1	 2	 01	 1	 8	 3.802270e+01	 Apropo.bmp	 GumiSnakes3.bmp	 54	 50	 1	 b	 2	 1	 1167.25	 0.56	 0.62	 3.968987e+01	 
MRI_snacks_116	 1	 2	 01	 1	 9	 4.202342e+01	 ChocolateParaCookies5.bmp	 HispusimShatiah.bmp	 6	 55	 1	 b	 4	 1	 1150.52	 4.89	 0.36	 4.367397e+01	 
MRI_snacks_116	 1	 2	 01	 1	 10	 4.502391e+01	 BisliPizza3.bmp	 BabyDoll.bmp	 52	 46	 0	 b	 2	 0	 987.08	 0.58	 0.64	 4.651710e+01	 
MRI_snacks_116	 1	 2	 01	 1	 11	 4.802449e+01	 Tictac.bmp	 Tapuchips.bmp	 48	 47	 1	 y	 2	 0	 1347.46	 0.64	 0.64	 4.987503e+01	 
MRI_snacks_116	 1	 2	 01	 1	 12	 5.302534e+01	 BisliOnion.bmp	 BisliPizza3.bmp	 51	 52	 1	 y	 2	 0	 1186.60	 0.60	 0.58	 5.470914e+01	 
MRI_snacks_116	 1	 2	 01	 1	 13	 5.602591e+01	 KinderBuenoBrown3.bmp	 Popco.bmp	 16	 13	 1	 b	 1	 1	 753.03	 4.73	 4.82	 5.727631e+01	 
MRI_snacks_116	 1	 2	 01	 1	 14	 6.602766e+01	 BisliPizza3.bmp	 Tictac.bmp	 52	 48	 0	 y	 2	 1	 1463.29	 0.58	 0.64	 6.798412e+01	 
MRI_snacks_116	 1	 2	 01	 1	 15	 7.202864e+01	 ClickBalls5.bmp	 KinderBuenoBrown3.bmp	 7	 16	 0	 x	 1	 999	 999000.00	 4.87	 4.73	 7.402935e+01	 
MRI_snacks_116	 1	 2	 01	 1	 16	 7.502915e+01	 SkittlesFruits2.bmp	 BambaNugat.bmp	 14	 12	 1	 b	 1	 1	 955.80	 4.82	 4.82	 7.648415e+01	 
MRI_snacks_116	 1	 2	 01	 1	 17	 7.902984e+01	 Tapuchips.bmp	 BisliGrill.bmp	 47	 49	 0	 b	 2	 0	 1175.12	 0.64	 0.62	 8.070099e+01	 
MRI_snacks_116	 1	 2	 01	 1	 18	 8.401746e+01	 CrunchBisquitWhite2.bmp	 KinderBuenoWhite2.bmp	 8	 15	 1	 y	 1	 0	 992.48	 4.87	 4.80	 8.551756e+01	 
MRI_snacks_116	 1	 2	 01	 1	 19	 9.101749e+01	 ClickBisquit2.bmp	 ClickBalls5.bmp	 9	 7	 1	 b	 1	 1	 825.46	 4.87	 4.87	 9.235109e+01	 
MRI_snacks_116	 1	 2	 01	 1	 20	 9.601765e+01	 Keifli.bmp	 ChocolateParaCookies5.bmp	 56	 6	 0	 y	 4	 1	 998.31	 0.33	 4.89	 9.751775e+01	 
MRI_snacks_116	 1	 2	 01	 1	 21	 9.901766e+01	 CrunchBisquitWhite2.bmp	 ClickBalls5.bmp	 8	 7	 1	 y	 1	 0	 1197.27	 4.87	 4.87	 1.007178e+02	 
MRI_snacks_116	 1	 2	 01	 1	 22	 1.050177e+02	 Dubonim.bmp	 BisliOnion.bmp	 53	 51	 0	 y	 2	 1	 1066.23	 0.58	 0.60	 1.065850e+02	 
MRI_snacks_116	 1	 2	 01	 1	 23	 1.090184e+02	 KashitSour.bmp	 Shugi.bmp	 45	 43	 0	 y	 2	 1	 880.54	 0.64	 1.58	 1.104022e+02	 
MRI_snacks_116	 1	 2	 01	 1	 24	 1.210206e+02	 Popco.bmp	 ChocolateParaMarir2.bmp	 13	 11	 0	 y	 1	 1	 1467.34	 4.82	 4.84	 1.229878e+02	 
MRI_snacks_116	 1	 2	 01	 1	 25	 1.240222e+02	 KashitSour.bmp	 BabyDoll.bmp	 45	 46	 0	 y	 2	 1	 1279.80	 0.64	 0.64	 1.258049e+02	 
MRI_snacks_116	 1	 2	 01	 1	 26	 1.270216e+02	 ClickBisquit2.bmp	 Bounty.bmp	 9	 10	 1	 b	 1	 1	 1109.39	 4.87	 4.84	 1.286387e+02	 
MRI_snacks_116	 1	 2	 01	 1	 27	 1.310223e+02	 KinderBuenoBrown3.bmp	 SkittlesSour4.bmp	 16	 18	 1	 b	 1	 1	 1034.61	 4.73	 3.98	 1.325561e+02	 
MRI_snacks_116	 1	 2	 01	 1	 28	 1.370233e+02	 BisliGrill.bmp	 KashitSour.bmp	 49	 45	 1	 b	 2	 1	 1217.67	 0.62	 0.64	 1.387405e+02	 
MRI_snacks_116	 1	 2	 01	 1	 29	 1.400239e+02	 ClickBisquit2.bmp	 KinderBuenoWhite2.bmp	 9	 15	 1	 y	 1	 0	 1083.08	 4.87	 4.80	 1.416077e+02	 
MRI_snacks_116	 1	 2	 01	 1	 30	 1.490254e+02	 GumiSnakes3.bmp	 Tictac.bmp	 50	 48	 0	 b	 2	 0	 915.57	 0.62	 0.64	 1.504424e+02	 
MRI_snacks_116	 1	 2	 01	 1	 31	 1.530262e+02	 BabyDoll.bmp	 GumiSnakes3.bmp	 46	 50	 1	 x	 2	 999	 999000.00	 0.64	 0.62	 1.550267e+02	 
MRI_snacks_116	 1	 2	 01	 1	 32	 1.570269e+02	 ChocolateParaMarir2.bmp	 Bounty.bmp	 11	 10	 1	 y	 1	 0	 929.10	 4.84	 4.84	 1.584519e+02	 
MRI_snacks_116	 1	 2	 01	 1	 33	 1.600273e+02	 SkittlesFruits2.bmp	 SkittlesSour4.bmp	 14	 18	 1	 b	 1	 1	 782.63	 4.82	 3.98	 1.613111e+02	 
MRI_snacks_116	 1	 2	 01	 1	 34	 1.630278e+02	 KinderBuenoWhite2.bmp	 SkittlesFruits2.bmp	 15	 14	 0	 b	 1	 0	 877.13	 4.80	 4.82	 1.644019e+02	 
MRI_snacks_116	 1	 2	 01	 1	 35	 1.730296e+02	 Tictac.bmp	 BagaleShtuhim.bmp	 48	 44	 1	 y	 2	 0	 944.31	 0.64	 0.69	 1.744688e+02	 
MRI_snacks_116	 1	 2	 01	 1	 36	 1.770303e+02	 Dubonim.bmp	 BabyDoll.bmp	 53	 46	 0	 b	 2	 0	 1138.62	 0.58	 0.64	 1.786689e+02	 
MRI_snacks_116	 1	 2	 01	 1	 37	 1.850187e+02	 ClickBalls5.bmp	 SkittlesFruits2.bmp	 7	 14	 0	 b	 1	 0	 1158.23	 4.87	 4.82	 1.866857e+02	 
MRI_snacks_116	 1	 2	 01	 1	 38	 1.880188e+02	 GumiSnakes3.bmp	 BisliGrill.bmp	 50	 49	 0	 b	 2	 0	 1271.16	 0.62	 0.62	 1.897994e+02	 
