subjectID	scanner	order	block	run	trial	onsettime	ImageLeft	ImageRight	bidIndexLeft	bidIndexRight	IsleftGo	Response	PairType	Outcome	RT	bidLeft	bidRight	ixationTime	
MRI_snacks_108	 1	 2	 02	 2	 1	 2.021237e+00	 Shugi.bmp	 ChocolateParaCookies5.bmp	 10	 11	 0	 y	 1	 1	 837.11	 5.93	 5.87	 3.354850e+00	 
MRI_snacks_108	 1	 2	 02	 2	 2	 6.015780e+00	 Tapuchips.bmp	 Cheetos.bmp	 43	 45	 1	 y	 2	 0	 1067.57	 2.71	 2.71	 7.582750e+00	 
MRI_snacks_108	 1	 2	 02	 2	 3	 9.016252e+00	 Bounty.bmp	 Kitkat.bmp	 14	 12	 1	 b	 1	 1	 801.10	 5.36	 5.82	 1.031677e+01	 
MRI_snacks_108	 1	 2	 02	 2	 4	 1.401715e+01	 Twist.bmp	 Cheetos.bmp	 48	 45	 1	 y	 2	 0	 1191.20	 1.87	 2.71	 1.570484e+01	 
MRI_snacks_108	 1	 2	 02	 2	 5	 1.701769e+01	 CrunchBisquitBrown3.bmp	 Dubonim.bmp	 6	 55	 1	 b	 4	 1	 720.66	 5.96	 0.60	 1.823844e+01	 
MRI_snacks_108	 1	 2	 02	 2	 6	 2.002147e+01	 KinderBuenoWhite2.bmp	 Tictac.bmp	 8	 13	 1	 b	 1	 1	 837.88	 5.96	 5.80	 2.135511e+01	 
MRI_snacks_108	 1	 2	 02	 2	 7	 3.400566e+01	 Kitkat.bmp	 KinderBuenoBrown3.bmp	 12	 16	 0	 b	 1	 0	 1020.69	 5.82	 5.27	 3.553860e+01	 
MRI_snacks_108	 1	 2	 02	 2	 8	 3.800683e+01	 BisliGrill.bmp	 Egozi.bmp	 46	 53	 1	 b	 2	 1	 1039.52	 2.69	 0.67	 3.955526e+01	 
MRI_snacks_108	 1	 2	 02	 2	 9	 4.200700e+01	 Cheetos.bmp	 Keifli.bmp	 45	 54	 0	 b	 2	 0	 1060.35	 2.71	 0.64	 4.357240e+01	 
MRI_snacks_108	 1	 2	 02	 2	 10	 4.500588e+01	 BabyDoll.bmp	 BisliOnion.bmp	 44	 51	 0	 b	 2	 0	 968.47	 2.71	 1.60	 4.647300e+01	 
MRI_snacks_108	 1	 2	 02	 2	 11	 4.800860e+01	 BisliGrill.bmp	 DoritosNatural.bmp	 46	 50	 1	 b	 2	 1	 976.76	 2.69	 1.64	 4.949019e+01	 
MRI_snacks_108	 1	 2	 02	 2	 12	 5.300728e+01	 Cheetos.bmp	 BisliOnion.bmp	 45	 51	 0	 b	 2	 0	 1071.06	 2.71	 1.60	 5.458871e+01	 
MRI_snacks_108	 1	 2	 02	 2	 13	 5.600786e+01	 Mentos.bmp	 Tapuchips.bmp	 47	 43	 0	 b	 2	 0	 1102.48	 2.69	 2.71	 5.762223e+01	 
MRI_snacks_108	 1	 2	 02	 2	 14	 6.600957e+01	 Shugi.bmp	 Bounty.bmp	 10	 14	 0	 y	 1	 1	 891.78	 5.93	 5.36	 6.740998e+01	 
MRI_snacks_108	 1	 2	 02	 2	 15	 7.201057e+01	 KashitSour.bmp	 KinderBuenoWhite2.bmp	 18	 8	 0	 y	 1	 1	 860.77	 4.91	 5.96	 7.337765e+01	 
MRI_snacks_108	 1	 2	 02	 2	 16	 7.501110e+01	 DoritosGrill.bmp	 Hit.bmp	 52	 49	 0	 y	 2	 1	 861.26	 0.67	 1.71	 7.637829e+01	 
MRI_snacks_108	 1	 2	 02	 2	 17	 7.901183e+01	 Kitkat.bmp	 KinderBuenoWhite2.bmp	 12	 8	 0	 y	 1	 1	 943.52	 5.82	 5.96	 8.046235e+01	 
MRI_snacks_108	 1	 2	 02	 2	 18	 8.401268e+01	 BambaNugat.bmp	 HispusimShatiah.bmp	 9	 15	 1	 b	 1	 1	 919.67	 5.93	 5.36	 8.543933e+01	 
MRI_snacks_108	 1	 2	 02	 2	 19	 9.101396e+01	 Mentos.bmp	 Twist.bmp	 47	 48	 0	 b	 2	 0	 847.39	 2.69	 1.87	 9.236444e+01	 
MRI_snacks_108	 1	 2	 02	 2	 20	 9.601477e+01	 DoritosNatural.bmp	 Twist.bmp	 50	 48	 0	 b	 2	 0	 999.58	 1.64	 1.87	 9.751525e+01	 
MRI_snacks_108	 1	 2	 02	 2	 21	 9.901536e+01	 Bounty.bmp	 HispusimShatiah.bmp	 14	 15	 1	 b	 1	 1	 1070.98	 5.36	 5.36	 1.005894e+02	 
MRI_snacks_108	 1	 2	 02	 2	 22	 1.050163e+02	 Egozi.bmp	 Keifli.bmp	 53	 54	 0	 y	 2	 1	 918.01	 0.67	 0.64	 1.064335e+02	 
MRI_snacks_108	 1	 2	 02	 2	 23	 1.090171e+02	 BisliGrill.bmp	 BabyDoll.bmp	 46	 44	 1	 y	 2	 0	 841.26	 2.69	 2.71	 1.103563e+02	 
MRI_snacks_108	 1	 2	 02	 2	 24	 1.210191e+02	 KashitSour.bmp	 ChocolateParaCookies5.bmp	 18	 11	 0	 y	 1	 1	 836.23	 4.91	 5.87	 1.223530e+02	 
MRI_snacks_108	 1	 2	 02	 2	 25	 1.240092e+02	 Keifli.bmp	 Mentos.bmp	 54	 47	 1	 y	 2	 0	 885.16	 0.64	 2.69	 1.254035e+02	 
MRI_snacks_108	 1	 2	 02	 2	 26	 1.270063e+02	 Twist.bmp	 Egozi.bmp	 48	 53	 1	 b	 2	 1	 1016.08	 1.87	 0.67	 1.285232e+02	 
MRI_snacks_108	 1	 2	 02	 2	 27	 1.310063e+02	 ClickXLbrown4.bmp	 Taami.bmp	 17	 7	 1	 y	 1	 0	 916.08	 4.96	 5.96	 1.324232e+02	 
MRI_snacks_108	 1	 2	 02	 2	 28	 1.370065e+02	 Shugi.bmp	 KinderBuenoWhite2.bmp	 10	 8	 0	 y	 1	 1	 1055.89	 5.93	 5.96	 1.385734e+02	 
MRI_snacks_108	 1	 2	 02	 2	 29	 1.400072e+02	 ChocolateParaCookies5.bmp	 Kitkat.bmp	 11	 12	 1	 b	 1	 1	 1135.19	 5.87	 5.82	 1.416400e+02	 
MRI_snacks_108	 1	 2	 02	 2	 30	 1.490074e+02	 ClickXLbrown4.bmp	 Kitkat.bmp	 17	 12	 1	 y	 1	 0	 1142.99	 4.96	 5.82	 1.506579e+02	 
MRI_snacks_108	 1	 2	 02	 2	 31	 1.530080e+02	 ClickXLbrown4.bmp	 KashitSour.bmp	 17	 18	 1	 b	 1	 1	 902.32	 4.96	 4.91	 1.544084e+02	 
MRI_snacks_108	 1	 2	 02	 2	 32	 1.570087e+02	 Shugi.bmp	 KinderBuenoBrown3.bmp	 10	 16	 0	 y	 1	 1	 934.63	 5.93	 5.27	 1.584425e+02	 
MRI_snacks_108	 1	 2	 02	 2	 33	 1.600112e+02	 DoritosNatural.bmp	 Tapuchips.bmp	 50	 43	 0	 y	 2	 1	 1281.15	 1.64	 2.71	 1.617931e+02	 
MRI_snacks_108	 1	 2	 02	 2	 34	 1.630097e+02	 BisliGrill.bmp	 Cheetos.bmp	 46	 45	 1	 b	 2	 1	 999.64	 2.69	 2.71	 1.645103e+02	 
MRI_snacks_108	 1	 2	 02	 2	 35	 1.730115e+02	 DoritosGrill.bmp	 Twist.bmp	 52	 48	 0	 b	 2	 0	 974.89	 0.67	 1.87	 1.744905e+02	 
MRI_snacks_108	 1	 2	 02	 2	 36	 1.770122e+02	 BisliBbq.bmp	 Mars.bmp	 56	 5	 0	 y	 4	 1	 1023.16	 0.60	 5.98	 1.785404e+02	 
MRI_snacks_108	 1	 2	 02	 2	 37	 1.850136e+02	 BambaNugat.bmp	 Taami.bmp	 9	 7	 1	 y	 1	 0	 635.75	 5.93	 5.96	 1.861474e+02	 
MRI_snacks_108	 1	 2	 02	 2	 38	 1.880166e+02	 ClickXLbrown4.bmp	 Tictac.bmp	 17	 13	 1	 b	 1	 1	 652.76	 4.96	 5.80	 1.891645e+02	 
