subjectID	scanner	order	block	run	trial	onsettime	ImageLeft	ImageRight	bidIndexLeft	bidIndexRight	IsleftGo	Response	PairType	Outcome	RT	bidLeft	bidRight	ixationTime	
MRI_snacks_115	 1	 1	 03	 1	 1	 2.021520e+00	 ClickXLwhite4.bmp	 Mekupelet.bmp	 15	 16	 1	 y	 1	 0	 881.04	 7.60	 7.07	 3.398010e+00	 
MRI_snacks_115	 1	 1	 03	 1	 2	 6.022204e+00	 BabyDoll.bmp	 GumiSnakes3.bmp	 44	 46	 1	 b	 2	 1	 1122.35	 1.62	 0.16	 7.639464e+00	 
MRI_snacks_115	 1	 1	 03	 1	 3	 9.022969e+00	 BambaSweet.bmp	 KashitSour.bmp	 52	 48	 1	 y	 2	 0	 830.59	 0.11	 0.16	 1.034828e+01	 
MRI_snacks_115	 1	 1	 03	 1	 4	 1.401452e+01	 BambaNugat.bmp	 HispusimShatiah.bmp	 53	 49	 1	 y	 2	 0	 947.04	 0.09	 0.13	 1.546502e+01	 
MRI_snacks_115	 1	 1	 03	 1	 5	 1.701476e+01	 DoritosGrill.bmp	 Popco.bmp	 12	 8	 1	 y	 1	 0	 816.80	 8.09	 9.84	 1.833154e+01	 
MRI_snacks_115	 1	 1	 03	 1	 6	 2.001483e+01	 BisliOnion.bmp	 BambaNugat.bmp	 43	 53	 0	 b	 2	 0	 1200.72	 1.69	 0.09	 2.171476e+01	 
MRI_snacks_115	 1	 1	 03	 1	 7	 3.401506e+01	 GumiSnakes3.bmp	 CrunchShokoVanil.bmp	 46	 45	 0	 y	 2	 1	 929.49	 0.16	 0.60	 3.544865e+01	 
MRI_snacks_115	 1	 1	 03	 1	 8	 3.801502e+01	 CrunchShokoVanil.bmp	 BisliOnion.bmp	 45	 43	 1	 b	 2	 1	 1263.51	 0.60	 1.69	 3.978193e+01	 
MRI_snacks_115	 1	 1	 03	 1	 9	 4.201518e+01	 Twix.bmp	 KinderBuenoBrown3.bmp	 7	 9	 1	 y	 1	 0	 789.37	 9.84	 9.82	 4.331258e+01	 
MRI_snacks_115	 1	 1	 03	 1	 10	 4.501521e+01	 Mars.bmp	 Twist.bmp	 6	 56	 1	 y	 4	 0	 1138.35	 9.87	 0.09	 4.664878e+01	 
MRI_snacks_115	 1	 1	 03	 1	 11	 4.801517e+01	 Egozi.bmp	 CrunchShokoVanil.bmp	 54	 45	 0	 y	 2	 1	 768.38	 0.09	 0.60	 4.928196e+01	 
MRI_snacks_115	 1	 1	 03	 1	 12	 5.301524e+01	 Twix.bmp	 Popco.bmp	 7	 8	 1	 y	 1	 0	 810.32	 9.84	 9.84	 5.433212e+01	 
MRI_snacks_115	 1	 1	 03	 1	 13	 5.601530e+01	 Loacker.bmp	 ClickXLbrown4.bmp	 11	 13	 0	 y	 1	 1	 1014.25	 8.13	 8.04	 5.753210e+01	 
MRI_snacks_115	 1	 1	 03	 1	 14	 6.601879e+01	 Tictac.bmp	 BambaSweet.bmp	 51	 52	 0	 b	 2	 0	 909.76	 0.11	 0.11	 6.743233e+01	 
MRI_snacks_115	 1	 1	 03	 1	 15	 7.201959e+01	 GumiSnakes3.bmp	 GumiWine2.bmp	 46	 47	 0	 b	 2	 0	 1115.97	 0.16	 0.16	 7.363435e+01	 
MRI_snacks_115	 1	 1	 03	 1	 16	 7.501786e+01	 Popco.bmp	 ClickXLbrown4.bmp	 8	 13	 0	 b	 1	 0	 834.71	 9.84	 8.04	 7.635157e+01	 
MRI_snacks_115	 1	 1	 03	 1	 17	 7.901854e+01	 ClickXLwhite4.bmp	 KifkefMaklot2.bmp	 15	 17	 1	 y	 1	 0	 957.01	 7.60	 7.02	 8.046884e+01	 
MRI_snacks_115	 1	 1	 03	 1	 18	 8.401927e+01	 KifkefMaklot2.bmp	 DoritosNatural.bmp	 17	 10	 0	 b	 1	 0	 880.28	 7.02	 9.07	 8.540311e+01	 
MRI_snacks_115	 1	 1	 03	 1	 19	 9.102061e+01	 Egozi.bmp	 BabyDoll.bmp	 54	 44	 0	 b	 2	 0	 1035.96	 0.09	 1.62	 9.255441e+01	 
MRI_snacks_115	 1	 1	 03	 1	 20	 9.602147e+01	 Mekupelet.bmp	 DoritosNatural.bmp	 16	 10	 0	 b	 1	 0	 1068.08	 7.07	 9.07	 9.758866e+01	 
MRI_snacks_115	 1	 1	 03	 1	 21	 9.902194e+01	 DoritosSourSpicy.bmp	 Tictac.bmp	 50	 51	 1	 b	 2	 1	 942.61	 0.11	 0.11	 1.004556e+02	 
MRI_snacks_115	 1	 1	 03	 1	 22	 1.050230e+02	 KashitSour.bmp	 BambaNugat.bmp	 48	 53	 0	 b	 2	 0	 1098.60	 0.16	 0.09	 1.066163e+02	 
MRI_snacks_115	 1	 1	 03	 1	 23	 1.090161e+02	 Bamba.bmp	 Twix.bmp	 14	 7	 0	 b	 1	 0	 1093.45	 8.02	 9.84	 1.106163e+02	 
MRI_snacks_115	 1	 1	 03	 1	 24	 1.210162e+02	 Mars.bmp	 Tapuchips.bmp	 6	 55	 1	 b	 4	 1	 952.33	 9.87	 0.09	 1.224663e+02	 
MRI_snacks_115	 1	 1	 03	 1	 25	 1.240263e+02	 DoritosGrill.bmp	 KinderBuenoBrown3.bmp	 12	 9	 1	 y	 1	 0	 887.29	 8.09	 9.82	 1.254101e+02	 
MRI_snacks_115	 1	 1	 03	 1	 26	 1.270163e+02	 GumiWine2.bmp	 KashitSour.bmp	 47	 48	 1	 y	 2	 0	 1334.33	 0.16	 0.16	 1.288498e+02	 
MRI_snacks_115	 1	 1	 03	 1	 27	 1.310163e+02	 Popco.bmp	 ClickBisquit2.bmp	 8	 18	 0	 b	 1	 0	 813.22	 9.84	 6.96	 1.323332e+02	 
MRI_snacks_115	 1	 1	 03	 1	 28	 1.370164e+02	 Tictac.bmp	 GumiWine2.bmp	 51	 47	 0	 b	 2	 0	 963.18	 0.11	 0.16	 1.384833e+02	 
MRI_snacks_115	 1	 1	 03	 1	 29	 1.400164e+02	 Mekupelet.bmp	 ClickXLbrown4.bmp	 16	 13	 0	 b	 1	 0	 941.11	 7.07	 8.04	 1.414629e+02	 
MRI_snacks_115	 1	 1	 03	 1	 30	 1.490166e+02	 BambaSweet.bmp	 Egozi.bmp	 52	 54	 1	 y	 2	 0	 823.94	 0.11	 0.09	 1.503335e+02	 
MRI_snacks_115	 1	 1	 03	 1	 31	 1.530166e+02	 BisliOnion.bmp	 DoritosSourSpicy.bmp	 43	 50	 0	 b	 2	 0	 1237.95	 1.69	 0.11	 1.547502e+02	 
MRI_snacks_115	 1	 1	 03	 1	 32	 1.570167e+02	 Twix.bmp	 Loacker.bmp	 7	 11	 1	 b	 1	 1	 1077.91	 9.84	 8.13	 1.586002e+02	 
MRI_snacks_115	 1	 1	 03	 1	 33	 1.600191e+02	 DoritosNatural.bmp	 Loacker.bmp	 10	 11	 1	 b	 1	 1	 1167.42	 9.07	 8.13	 1.616836e+02	 
MRI_snacks_115	 1	 1	 03	 1	 34	 1.630167e+02	 BambaNugat.bmp	 Egozi.bmp	 53	 54	 1	 y	 2	 0	 856.86	 0.09	 0.09	 1.643671e+02	 
MRI_snacks_115	 1	 1	 03	 1	 35	 1.730182e+02	 HispusimShatiah.bmp	 CrunchShokoVanil.bmp	 49	 45	 0	 y	 2	 1	 986.39	 0.13	 0.60	 1.745020e+02	 
MRI_snacks_115	 1	 1	 03	 1	 36	 1.770189e+02	 Loacker.bmp	 ClickBisquit2.bmp	 11	 18	 0	 y	 1	 1	 1068.64	 8.13	 6.96	 1.785860e+02	 
MRI_snacks_115	 1	 1	 03	 1	 37	 1.850203e+02	 DoritosNatural.bmp	 Bamba.bmp	 10	 14	 1	 y	 1	 0	 922.28	 9.07	 8.02	 1.864374e+02	 
MRI_snacks_115	 1	 1	 03	 1	 38	 1.880230e+02	 Popco.bmp	 ClickXLwhite4.bmp	 8	 15	 0	 b	 1	 0	 789.57	 9.84	 7.60	 1.893044e+02	 
