subjectID	scanner	order	block	run	trial	onsettime	ImageLeft	ImageRight	bidIndexLeft	bidIndexRight	IsleftGo	Response	PairType	Outcome	RT	bidLeft	bidRight	ixationTime	
MRI_snacks_117	 1	 1	 01	 2	 1	 2.016140e+00	 CrunchBisquitWhite2.bmp	 ChocolateParaCookies5.bmp	 15	 11	 1	 y	 1	 0	 1029.98	 6.93	 6.96	 3.549808e+00	 
MRI_snacks_117	 1	 1	 01	 2	 2	 5.016236e+00	 Taami.bmp	 ClickBisquit2.bmp	 9	 13	 0	 y	 1	 1	 1028.89	 7.00	 6.93	 6.538765e+00	 
MRI_snacks_117	 1	 1	 01	 2	 3	 8.016281e+00	 ChocolateParaMarir2.bmp	 BambaSweet.bmp	 47	 48	 1	 y	 2	 0	 1065.84	 0.04	 0.04	 9.583098e+00	 
MRI_snacks_117	 1	 1	 01	 2	 4	 1.301627e+01	 BisliBbq.bmp	 ChocolateParaSucariotKoftzot2.bmp	 50	 43	 1	 y	 2	 0	 947.85	 0.04	 0.56	 1.446659e+01	 
MRI_snacks_117	 1	 1	 01	 2	 5	 1.801642e+01	 Tictac.bmp	 Twist.bmp	 49	 45	 0	 x	 2	 999	 999000.00	 0.04	 0.04	 2.001648e+01	 
MRI_snacks_117	 1	 1	 01	 2	 6	 2.501653e+01	 Tictac.bmp	 BisliBbq.bmp	 49	 50	 0	 b	 2	 0	 1059.59	 0.04	 0.04	 2.657557e+01	 
MRI_snacks_117	 1	 1	 01	 2	 7	 2.901653e+01	 KinderJoy.bmp	 Mekupelet.bmp	 8	 7	 0	 b	 1	 0	 1041.59	 7.98	 8.00	 3.055965e+01	 
MRI_snacks_117	 1	 1	 01	 2	 8	 3.201654e+01	 KinderJoy.bmp	 Bamba.bmp	 8	 12	 0	 b	 1	 0	 1116.58	 7.98	 6.96	 3.363345e+01	 
MRI_snacks_117	 1	 1	 01	 2	 9	 3.901670e+01	 Taami.bmp	 Mekupelet.bmp	 9	 7	 0	 b	 1	 0	 889.43	 7.00	 8.00	 4.040024e+01	 
MRI_snacks_117	 1	 1	 01	 2	 10	 4.301679e+01	 Taami.bmp	 Loacker.bmp	 9	 18	 0	 b	 1	 0	 1033.38	 7.00	 5.91	 4.455024e+01	 
MRI_snacks_117	 1	 1	 01	 2	 11	 4.601680e+01	 CrunchBisquitWhite2.bmp	 Taami.bmp	 15	 9	 1	 y	 1	 0	 845.32	 6.93	 7.00	 4.736262e+01	 
MRI_snacks_117	 1	 1	 01	 2	 12	 5.001692e+01	 KinderBuenoWhite2.bmp	 ClickBalls5.bmp	 10	 14	 1	 b	 1	 1	 898.20	 6.96	 6.93	 5.141698e+01	 
MRI_snacks_117	 1	 1	 01	 2	 13	 5.401688e+01	 CrunchBisquitBrown3.bmp	 KinderBuenoWhite2.bmp	 17	 10	 0	 y	 1	 1	 1063.24	 6.89	 6.96	 5.558069e+01	 
MRI_snacks_117	 1	 1	 01	 2	 14	 5.901691e+01	 Tortit.bmp	 BabyDoll.bmp	 5	 56	 1	 b	 4	 1	 1169.22	 8.00	 0.02	 6.068383e+01	 
MRI_snacks_117	 1	 1	 01	 2	 15	 6.301701e+01	 ClickXLwhite4.bmp	 CrunchBisquitWhite2.bmp	 16	 15	 0	 b	 1	 0	 1236.12	 6.93	 6.93	 6.475057e+01	 
MRI_snacks_117	 1	 1	 01	 2	 16	 6.701713e+01	 Cheetos.bmp	 SkittlesFruits2.bmp	 53	 46	 1	 y	 2	 0	 839.00	 0.02	 0.04	 6.835051e+01	 
MRI_snacks_117	 1	 1	 01	 2	 17	 7.001718e+01	 ClickBalls5.bmp	 CrunchBisquitWhite2.bmp	 14	 15	 0	 y	 1	 1	 899.95	 6.93	 6.93	 7.141734e+01	 
MRI_snacks_117	 1	 1	 01	 2	 18	 8.001805e+01	 CrunchBisquitBrown3.bmp	 Mekupelet.bmp	 17	 7	 0	 y	 1	 1	 699.07	 6.89	 8.00	 8.121860e+01	 
MRI_snacks_117	 1	 1	 01	 2	 19	 8.401881e+01	 BambaSweet.bmp	 PesekZman.bmp	 48	 52	 0	 b	 2	 0	 1221.32	 0.04	 0.04	 8.573607e+01	 
MRI_snacks_117	 1	 1	 01	 2	 20	 8.701731e+01	 BambaSweet.bmp	 Twist.bmp	 48	 45	 0	 b	 2	 0	 701.81	 0.04	 0.04	 8.821967e+01	 
MRI_snacks_117	 1	 1	 01	 2	 21	 9.001736e+01	 PesekZman.bmp	 ChocolateParaSucariotKoftzot2.bmp	 52	 43	 1	 y	 2	 0	 1047.76	 0.04	 0.56	 9.155371e+01	 
MRI_snacks_117	 1	 1	 01	 2	 22	 9.401739e+01	 Mekupelet.bmp	 ClickBalls5.bmp	 7	 14	 1	 y	 1	 0	 1175.73	 8.00	 6.93	 9.568778e+01	 
MRI_snacks_117	 1	 1	 01	 2	 23	 1.000175e+02	 ChocolateParaMarir2.bmp	 ChocolateParaSucariotKoftzot2.bmp	 47	 43	 1	 y	 2	 0	 916.66	 0.04	 0.56	 1.014343e+02	 
MRI_snacks_117	 1	 1	 01	 2	 24	 1.030176e+02	 Cheetos.bmp	 Popco.bmp	 53	 54	 1	 y	 2	 0	 918.59	 0.02	 0.02	 1.044345e+02	 
MRI_snacks_117	 1	 1	 01	 2	 25	 1.060176e+02	 Mentos.bmp	 Tictac.bmp	 44	 49	 1	 y	 2	 0	 902.55	 0.07	 0.04	 1.074178e+02	 
MRI_snacks_117	 1	 1	 01	 2	 26	 1.100177e+02	 ClickXLwhite4.bmp	 Mekupelet.bmp	 16	 7	 0	 y	 1	 1	 781.46	 6.93	 8.00	 1.112903e+02	 
MRI_snacks_117	 1	 1	 01	 2	 27	 1.130177e+02	 Popco.bmp	 BisliBbq.bmp	 54	 50	 0	 b	 2	 0	 879.44	 0.02	 0.04	 1.143909e+02	 
MRI_snacks_117	 1	 1	 01	 2	 28	 1.160178e+02	 SkittlesSour4.bmp	 Cheetos.bmp	 51	 53	 0	 b	 2	 0	 1205.32	 0.04	 0.02	 1.177249e+02	 
MRI_snacks_117	 1	 1	 01	 2	 29	 1.300179e+02	 Tictac.bmp	 ChocolateParaMarir2.bmp	 49	 47	 0	 b	 2	 0	 804.24	 0.04	 0.04	 1.313182e+02	 
MRI_snacks_117	 1	 1	 01	 2	 30	 1.400180e+02	 PesekZman.bmp	 Popco.bmp	 52	 54	 1	 y	 2	 0	 1056.17	 0.04	 0.02	 1.415683e+02	 
MRI_snacks_117	 1	 1	 01	 2	 31	 1.460181e+02	 KinderBuenoWhite2.bmp	 Taami.bmp	 10	 9	 1	 b	 1	 1	 667.99	 6.96	 7.00	 1.471849e+02	 
MRI_snacks_117	 1	 1	 01	 2	 32	 1.500182e+02	 ChocolateParaCookies5.bmp	 ClickBisquit2.bmp	 11	 13	 0	 y	 1	 1	 809.92	 6.96	 6.93	 1.513184e+02	 
MRI_snacks_117	 1	 1	 01	 2	 33	 1.560182e+02	 KinderBuenoWhite2.bmp	 ChocolateParaCookies5.bmp	 10	 11	 1	 b	 1	 1	 1006.90	 6.96	 6.96	 1.575185e+02	 
MRI_snacks_117	 1	 1	 01	 2	 34	 1.600183e+02	 BisliBbq.bmp	 BambaSweet.bmp	 50	 48	 1	 y	 2	 0	 948.79	 0.04	 0.04	 1.614686e+02	 
MRI_snacks_117	 1	 1	 01	 2	 35	 1.660184e+02	 ClickBisquit2.bmp	 ClickBalls5.bmp	 13	 14	 1	 b	 1	 1	 1045.72	 6.93	 6.93	 1.675519e+02	 
MRI_snacks_117	 1	 1	 01	 2	 36	 1.780186e+02	 Tapuchips.bmp	 Tortit.bmp	 55	 5	 0	 y	 4	 1	 992.55	 0.02	 8.00	 1.795021e+02	 
MRI_snacks_117	 1	 1	 01	 2	 37	 1.810190e+02	 Mentos.bmp	 Popco.bmp	 44	 54	 1	 y	 2	 0	 1046.17	 0.07	 0.02	 1.825526e+02	 
MRI_snacks_117	 1	 1	 01	 2	 38	 1.880186e+02	 Mentos.bmp	 SkittlesFruits2.bmp	 44	 46	 1	 y	 2	 0	 859.49	 0.07	 0.04	 1.893707e+02	 
