subjectID	scanner	order	block	run	trial	onsettime	ImageLeft	ImageRight	bidIndexLeft	bidIndexRight	IsleftGo	Response	PairType	Outcome	RT	bidLeft	bidRight	ixationTime	
MRI_snacks_131	 1	 1	 04	 1	 1	 2.014498e+00	 Twix.bmp	 ChocolateParaCookies5.bmp	 7	 14	 1	 y	 1	 0	 1179.63	 3.84	 3.78	 3.698268e+00	 
MRI_snacks_131	 1	 1	 04	 1	 2	 9.015782e+00	 GumiWine2.bmp	 HispusimShatiah.bmp	 54	 44	 0	 y	 2	 1	 913.42	 0.04	 0.62	 1.043286e+01	 
MRI_snacks_131	 1	 1	 04	 1	 3	 2.201787e+01	 BambaNugat.bmp	 BisliBbq.bmp	 53	 43	 1	 b	 2	 1	 924.25	 0.07	 0.69	 2.343505e+01	 
MRI_snacks_131	 1	 1	 04	 1	 4	 2.601868e+01	 Twix.bmp	 Loacker.bmp	 7	 16	 1	 b	 1	 1	 836.41	 3.84	 3.78	 2.735243e+01	 
MRI_snacks_131	 1	 1	 04	 1	 5	 3.101966e+01	 Twix.bmp	 Taami.bmp	 7	 11	 1	 y	 1	 0	 859.45	 3.84	 3.82	 3.238012e+01	 
MRI_snacks_131	 1	 1	 04	 1	 6	 3.402011e+01	 HispusimShatiah.bmp	 Tictac.bmp	 44	 51	 1	 b	 2	 1	 674.01	 0.62	 0.09	 3.518726e+01	 
MRI_snacks_131	 1	 1	 04	 1	 7	 3.901339e+01	 Mekupelet.bmp	 BisliOnion.bmp	 18	 9	 1	 b	 1	 1	 668.73	 3.76	 3.82	 4.018805e+01	 
MRI_snacks_131	 1	 1	 04	 1	 8	 4.302165e+01	 BabyDoll.bmp	 BisliBbq.bmp	 52	 43	 1	 y	 2	 0	 920.47	 0.07	 0.69	 4.443886e+01	 
MRI_snacks_131	 1	 1	 04	 1	 9	 5.201354e+01	 Keifli.bmp	 CrunchBisquitBrown3.bmp	 55	 6	 0	 y	 4	 1	 754.58	 0.04	 4.82	 5.327371e+01	 
MRI_snacks_131	 1	 1	 04	 1	 10	 5.701347e+01	 Mekupelet.bmp	 KinderBuenoWhite2.bmp	 18	 8	 1	 b	 1	 1	 797.65	 3.76	 3.82	 5.831377e+01	 
MRI_snacks_131	 1	 1	 04	 1	 11	 6.101371e+01	 BisliOnion.bmp	 ChocolateParaMarir2.bmp	 9	 10	 0	 y	 1	 1	 865.45	 3.82	 3.82	 6.238054e+01	 
MRI_snacks_131	 1	 1	 04	 1	 12	 6.801374e+01	 Taami.bmp	 Mekupelet.bmp	 11	 18	 0	 b	 1	 0	 976.38	 3.82	 3.76	 6.949725e+01	 
MRI_snacks_131	 1	 1	 04	 1	 13	 7.201387e+01	 CrunchShokoVanil.bmp	 DoritosGrill.bmp	 49	 45	 0	 b	 2	 0	 753.24	 0.53	 0.62	 7.326411e+01	 
MRI_snacks_131	 1	 1	 04	 1	 14	 7.801392e+01	 Taami.bmp	 Tapuchips.bmp	 11	 12	 0	 b	 1	 0	 795.20	 3.82	 3.80	 7.931425e+01	 
MRI_snacks_131	 1	 1	 04	 1	 15	 8.301399e+01	 CrunchShokoVanil.bmp	 BambaSweet.bmp	 49	 47	 0	 b	 2	 0	 980.14	 0.53	 0.60	 8.449750e+01	 
MRI_snacks_131	 1	 1	 04	 1	 16	 8.701400e+01	 Twix.bmp	 BisliOnion.bmp	 7	 9	 1	 b	 1	 1	 801.38	 3.84	 3.82	 8.831424e+01	 
MRI_snacks_131	 1	 1	 04	 1	 17	 9.001412e+01	 GumiSnakes3.bmp	 Tictac.bmp	 50	 51	 1	 b	 2	 1	 704.99	 0.51	 0.09	 9.121418e+01	 
MRI_snacks_131	 1	 1	 04	 1	 18	 9.301411e+01	 Loacker.bmp	 Tapuchips.bmp	 16	 12	 0	 y	 1	 1	 972.02	 3.78	 3.80	 9.448088e+01	 
MRI_snacks_131	 1	 1	 04	 1	 19	 9.701444e+01	 Dubonim.bmp	 GumiSnakes3.bmp	 48	 50	 0	 y	 2	 1	 1076.68	 0.56	 0.51	 9.858120e+01	 
MRI_snacks_131	 1	 1	 04	 1	 20	 1.100168e+02	 Mekupelet.bmp	 HappyHippo.bmp	 18	 17	 1	 b	 1	 1	 776.35	 3.76	 3.76	 1.112838e+02	 
MRI_snacks_131	 1	 1	 04	 1	 21	 1.140174e+02	 Tapuchips.bmp	 BisliOnion.bmp	 12	 9	 1	 y	 1	 0	 1277.75	 3.80	 3.82	 1.157979e+02	 
MRI_snacks_131	 1	 1	 04	 1	 22	 1.170180e+02	 DoritosGrill.bmp	 Twist.bmp	 45	 46	 1	 y	 2	 0	 856.30	 0.62	 0.62	 1.183683e+02	 
MRI_snacks_131	 1	 1	 04	 1	 23	 1.220198e+02	 Loacker.bmp	 Mekupelet.bmp	 16	 18	 0	 y	 1	 1	 804.34	 3.78	 3.76	 1.233191e+02	 
MRI_snacks_131	 1	 1	 04	 1	 24	 1.250193e+02	 Dubonim.bmp	 BabyDoll.bmp	 48	 52	 0	 b	 2	 0	 666.78	 0.56	 0.07	 1.261863e+02	 
MRI_snacks_131	 1	 1	 04	 1	 25	 1.290201e+02	 HispusimShatiah.bmp	 CrunchShokoVanil.bmp	 44	 49	 1	 y	 2	 0	 960.07	 0.62	 0.53	 1.304814e+02	 
MRI_snacks_131	 1	 1	 04	 1	 26	 1.350211e+02	 HappyHippo.bmp	 Twix.bmp	 17	 7	 0	 y	 1	 1	 875.05	 3.76	 3.84	 1.363882e+02	 
MRI_snacks_131	 1	 1	 04	 1	 27	 1.380216e+02	 GumiSnakes3.bmp	 BisliBbq.bmp	 50	 43	 1	 b	 2	 1	 1048.52	 0.51	 0.69	 1.395650e+02	 
MRI_snacks_131	 1	 1	 04	 1	 28	 1.420172e+02	 BambaNugat.bmp	 Dubonim.bmp	 53	 48	 1	 b	 2	 1	 1010.90	 0.07	 0.56	 1.435316e+02	 
MRI_snacks_131	 1	 1	 04	 1	 29	 1.470148e+02	 BabyDoll.bmp	 Tictac.bmp	 52	 51	 1	 b	 2	 1	 734.29	 0.07	 0.09	 1.482484e+02	 
MRI_snacks_131	 1	 1	 04	 1	 30	 1.510148e+02	 BambaSweet.bmp	 GumiWine2.bmp	 47	 54	 1	 y	 2	 0	 1118.28	 0.60	 0.04	 1.526317e+02	 
MRI_snacks_131	 1	 1	 04	 1	 31	 1.630151e+02	 KinderBuenoWhite2.bmp	 Tapuchips.bmp	 8	 12	 0	 b	 1	 0	 945.03	 3.82	 3.80	 1.644652e+02	 
MRI_snacks_131	 1	 1	 04	 1	 32	 1.690151e+02	 KinderBuenoWhite2.bmp	 ClickBlackWhite3.bmp	 8	 15	 0	 b	 1	 0	 778.03	 3.82	 3.78	 1.702986e+02	 
MRI_snacks_131	 1	 1	 04	 1	 33	 1.720176e+02	 ChocolateParaCookies5.bmp	 Mekupelet.bmp	 14	 18	 0	 y	 1	 1	 771.54	 3.78	 3.76	 1.732821e+02	 
MRI_snacks_131	 1	 1	 04	 1	 34	 1.760152e+02	 Dubonim.bmp	 HispusimShatiah.bmp	 48	 44	 0	 b	 2	 0	 995.97	 0.56	 0.62	 1.775154e+02	 
MRI_snacks_131	 1	 1	 04	 1	 35	 1.790153e+02	 WerthersOriginal.bmp	 Mars.bmp	 56	 5	 0	 y	 4	 1	 675.85	 0.04	 4.84	 1.801957e+02	 
MRI_snacks_131	 1	 1	 04	 1	 36	 1.820156e+02	 CrunchShokoVanil.bmp	 BambaNugat.bmp	 49	 53	 0	 b	 2	 0	 876.53	 0.53	 0.07	 1.833963e+02	 
MRI_snacks_131	 1	 1	 04	 1	 37	 1.850154e+02	 BisliBbq.bmp	 HispusimShatiah.bmp	 43	 44	 0	 y	 2	 1	 900.75	 0.69	 0.62	 1.864155e+02	 
MRI_snacks_131	 1	 1	 04	 1	 38	 1.880157e+02	 Egozi.bmp	 HappyHippo.bmp	 13	 17	 1	 b	 1	 1	 1075.43	 3.80	 3.76	 1.895822e+02	 
