subjectID	scanner	order	block	run	trial	onsettime	ImageLeft	ImageRight	bidIndexLeft	bidIndexRight	IsleftGo	Response	PairType	Outcome	RT	bidLeft	bidRight	ixationTime	
MRI_snacks_124	 1	 2	 01	 1	 1	 2.030605e+00	 Shugi.bmp	 Loacker.bmp	 8	 18	 1	 y	 1	 0	 891.55	 4.84	 2.71	 3.416375e+00	 
MRI_snacks_124	 1	 2	 01	 1	 2	 6.032966e+00	 ChocolateParaCookies5.bmp	 WerthersOriginal.bmp	 54	 53	 1	 b	 2	 1	 907.16	 0.04	 0.04	 7.433143e+00	 
MRI_snacks_124	 1	 2	 01	 1	 3	 1.303304e+01	 ChocolateParaCookies5.bmp	 Twist.bmp	 54	 44	 1	 b	 2	 1	 1076.08	 0.04	 0.07	 1.459998e+01	 
MRI_snacks_124	 1	 2	 01	 1	 4	 1.601622e+01	 GumiWine2.bmp	 CrunchBisquitBrown3.bmp	 56	 6	 0	 y	 4	 1	 922.90	 0.02	 4.89	 1.745002e+01	 
MRI_snacks_124	 1	 2	 01	 1	 5	 2.101696e+01	 Taami.bmp	 CrunchShokoVanil.bmp	 11	 10	 1	 y	 1	 0	 1069.15	 4.78	 4.82	 2.260100e+01	 
MRI_snacks_124	 1	 2	 01	 1	 6	 3.101897e+01	 DoritosGrill.bmp	 Loacker.bmp	 16	 18	 1	 y	 1	 0	 762.15	 2.71	 2.71	 3.228614e+01	 
MRI_snacks_124	 1	 2	 01	 1	 7	 3.402078e+01	 BambaSweet.bmp	 Tortit.bmp	 55	 5	 0	 y	 4	 1	 871.35	 0.02	 4.89	 3.540318e+01	 
MRI_snacks_124	 1	 2	 01	 1	 8	 3.702009e+01	 CrunchBisquitWhite2.bmp	 DoritosGrill.bmp	 12	 16	 0	 y	 1	 1	 1328.03	 3.82	 2.71	 3.885397e+01	 
MRI_snacks_124	 1	 2	 01	 1	 9	 4.602161e+01	 Kitkat.bmp	 PesekZman.bmp	 7	 9	 0	 b	 1	 0	 1292.51	 4.84	 4.84	 4.782200e+01	 
MRI_snacks_124	 1	 2	 01	 1	 10	 4.902208e+01	 Dubonim.bmp	 Bounty.bmp	 51	 47	 1	 y	 2	 0	 747.04	 0.04	 0.04	 5.027266e+01	 
MRI_snacks_124	 1	 2	 01	 1	 11	 5.902390e+01	 BagaleShtuhim.bmp	 ChocolateParaMilk3.bmp	 49	 50	 1	 y	 2	 0	 1149.22	 0.04	 0.04	 6.067430e+01	 
MRI_snacks_124	 1	 2	 01	 1	 12	 6.402482e+01	 Twix.bmp	 HappyHippo.bmp	 14	 13	 1	 y	 1	 0	 909.31	 3.73	 3.80	 6.544190e+01	 
MRI_snacks_124	 1	 2	 01	 1	 13	 6.902561e+01	 ChocolateParaCookies5.bmp	 SkittlesSour4.bmp	 54	 45	 1	 b	 2	 1	 967.51	 0.04	 0.07	 7.049274e+01	 
MRI_snacks_124	 1	 2	 01	 1	 14	 7.702708e+01	 CrunchShokoVanil.bmp	 Twix.bmp	 10	 14	 0	 b	 1	 0	 1273.04	 4.82	 3.73	 7.880085e+01	 
MRI_snacks_124	 1	 2	 01	 1	 15	 8.402835e+01	 BisliBbq.bmp	 WerthersOriginal.bmp	 43	 53	 1	 y	 2	 0	 1337.77	 0.07	 0.04	 8.586758e+01	 
MRI_snacks_124	 1	 2	 01	 1	 16	 8.802896e+01	 Dubonim.bmp	 Keifli.bmp	 51	 52	 1	 b	 2	 1	 1173.16	 0.04	 0.04	 8.970094e+01	 
MRI_snacks_124	 1	 2	 01	 1	 17	 9.102947e+01	 PesekZman.bmp	 Loacker.bmp	 9	 18	 1	 y	 1	 0	 808.65	 4.84	 2.71	 9.233432e+01	 
MRI_snacks_124	 1	 2	 01	 1	 18	 9.603036e+01	 Twist.bmp	 BisliBbq.bmp	 44	 43	 0	 y	 2	 1	 1338.77	 0.07	 0.07	 9.786776e+01	 
MRI_snacks_124	 1	 2	 01	 1	 19	 9.903091e+01	 Dubonim.bmp	 Twist.bmp	 51	 44	 1	 b	 2	 1	 899.21	 0.04	 0.07	 1.004314e+02	 
MRI_snacks_124	 1	 2	 01	 1	 20	 1.070323e+02	 Kitkat.bmp	 Taami.bmp	 7	 11	 0	 b	 1	 0	 1071.86	 4.84	 4.78	 1.086012e+02	 
MRI_snacks_124	 1	 2	 01	 1	 21	 1.130178e+02	 Bounty.bmp	 ChocolateParaCookies5.bmp	 47	 54	 0	 y	 2	 1	 1284.27	 0.04	 0.04	 1.148170e+02	 
MRI_snacks_124	 1	 2	 01	 1	 22	 1.180179e+02	 DoritosGrill.bmp	 HappyHippo.bmp	 16	 13	 1	 y	 1	 0	 804.25	 2.71	 3.80	 1.193348e+02	 
MRI_snacks_124	 1	 2	 01	 1	 23	 1.230185e+02	 CrunchBisquitWhite2.bmp	 PesekZman.bmp	 12	 9	 0	 b	 1	 0	 1219.63	 3.82	 4.84	 1.247523e+02	 
MRI_snacks_124	 1	 2	 01	 1	 24	 1.260189e+02	 Dubonim.bmp	 ChocolateParaMilk3.bmp	 51	 50	 1	 b	 2	 1	 1286.24	 0.04	 0.04	 1.278181e+02	 
MRI_snacks_124	 1	 2	 01	 1	 25	 1.400220e+02	 ChocolateParaMilk3.bmp	 BisliPizza3.bmp	 50	 46	 0	 b	 2	 0	 804.10	 0.04	 0.04	 1.413351e+02	 
MRI_snacks_124	 1	 2	 01	 1	 26	 1.430219e+02	 Twix.bmp	 Kitkat.bmp	 14	 7	 1	 y	 1	 0	 1020.22	 3.73	 4.84	 1.445517e+02	 
MRI_snacks_124	 1	 2	 01	 1	 27	 1.470226e+02	 Keifli.bmp	 BisliBbq.bmp	 52	 43	 0	 y	 2	 1	 1060.52	 0.04	 0.07	 1.485897e+02	 
MRI_snacks_124	 1	 2	 01	 1	 28	 1.510233e+02	 CrunchBisquitWhite2.bmp	 Twix.bmp	 12	 14	 0	 b	 1	 0	 749.81	 3.82	 3.73	 1.522736e+02	 
MRI_snacks_124	 1	 2	 01	 1	 29	 1.540239e+02	 Dubonim.bmp	 SkittlesSour4.bmp	 51	 45	 1	 y	 2	 0	 984.27	 0.04	 0.07	 1.555076e+02	 
MRI_snacks_124	 1	 2	 01	 1	 30	 1.570243e+02	 Popco.bmp	 PesekZman.bmp	 15	 9	 0	 b	 1	 0	 1303.77	 2.73	 4.84	 1.588352e+02	 
MRI_snacks_124	 1	 2	 01	 1	 31	 1.630253e+02	 Bounty.bmp	 BisliPizza3.bmp	 47	 46	 0	 y	 2	 1	 721.77	 0.04	 0.04	 1.642517e+02	 
MRI_snacks_124	 1	 2	 01	 1	 32	 1.690264e+02	 Taami.bmp	 HappyHippo.bmp	 11	 13	 1	 y	 1	 0	 764.68	 4.78	 3.80	 1.702936e+02	 
MRI_snacks_124	 1	 2	 01	 1	 33	 1.720269e+02	 Keifli.bmp	 ChocolateParaCookies5.bmp	 52	 54	 0	 y	 2	 1	 1153.22	 0.04	 0.04	 1.736855e+02	 
MRI_snacks_124	 1	 2	 01	 1	 34	 1.750275e+02	 CrunchBisquitWhite2.bmp	 Taami.bmp	 12	 11	 0	 b	 1	 0	 1048.64	 3.82	 4.78	 1.765779e+02	 
MRI_snacks_124	 1	 2	 01	 1	 35	 1.790282e+02	 SkittlesSour4.bmp	 BagaleShtuhim.bmp	 45	 49	 0	 b	 2	 0	 921.95	 0.07	 0.04	 1.804521e+02	 
MRI_snacks_124	 1	 2	 01	 1	 36	 1.820286e+02	 ChocolateParaMilk3.bmp	 BisliBbq.bmp	 50	 43	 0	 x	 2	 999	 999000.00	 0.04	 0.07	 1.840292e+02	 
MRI_snacks_124	 1	 2	 01	 1	 37	 1.850292e+02	 DoritosSourSpicy.bmp	 Loacker.bmp	 17	 18	 1	 b	 1	 1	 979.92	 2.71	 2.71	 1.865022e+02	 
MRI_snacks_124	 1	 2	 01	 1	 38	 1.880297e+02	 Popco.bmp	 DoritosSourSpicy.bmp	 15	 17	 0	 b	 1	 0	 825.40	 2.73	 2.71	 1.893524e+02	 
