subjectID	scanner	order	block	run	trial	onsettime	ImageLeft	ImageRight	bidIndexLeft	bidIndexRight	IsleftGo	Response	PairType	Outcome	RT	bidLeft	bidRight	ixationTime	
MRI_snacks_123	 1	 1	 04	 2	 1	 2.022061e+00	 HappyHippo.bmp	 Dubonim.bmp	 53	 43	 1	 b	 2	 1	 936.19	 2.69	 3.16	 3.455877e+00	 
MRI_snacks_123	 1	 1	 04	 2	 2	 6.014247e+00	 ChocolateParaCookies5.bmp	 BisliGrill.bmp	 10	 17	 1	 b	 1	 1	 989.01	 5.42	 4.96	 7.506488e+00	 
MRI_snacks_123	 1	 1	 04	 2	 3	 9.014285e+00	 Shugi.bmp	 Tictac.bmp	 52	 46	 1	 b	 2	 1	 677.97	 2.71	 2.80	 1.019797e+01	 
MRI_snacks_123	 1	 1	 04	 2	 4	 1.401442e+01	 Tortit.bmp	 SkittlesSour4.bmp	 45	 48	 1	 b	 2	 1	 675.83	 2.80	 2.76	 1.519118e+01	 
MRI_snacks_123	 1	 1	 04	 2	 5	 1.701449e+01	 BambaNugat.bmp	 BisliGrill.bmp	 18	 17	 1	 y	 1	 0	 1228.76	 4.93	 4.96	 1.874813e+01	 
MRI_snacks_123	 1	 1	 04	 2	 6	 2.001456e+01	 Shugi.bmp	 Dubonim.bmp	 52	 43	 1	 b	 2	 1	 1084.73	 2.71	 3.16	 2.159810e+01	 
MRI_snacks_123	 1	 1	 04	 2	 7	 3.401479e+01	 Twist.bmp	 HappyHippo.bmp	 54	 53	 0	 y	 2	 1	 1104.45	 2.36	 2.69	 3.561500e+01	 
MRI_snacks_123	 1	 1	 04	 2	 8	 3.801481e+01	 ClickXLwhite4.bmp	 Popco.bmp	 15	 16	 1	 b	 1	 1	 964.43	 5.13	 4.96	 3.948165e+01	 
MRI_snacks_123	 1	 1	 04	 2	 9	 4.201478e+01	 Twist.bmp	 BambaSweet.bmp	 54	 47	 0	 y	 2	 1	 886.46	 2.36	 2.80	 4.339835e+01	 
MRI_snacks_123	 1	 1	 04	 2	 10	 4.501488e+01	 Bamba.bmp	 KashitSour.bmp	 50	 49	 1	 b	 2	 1	 735.37	 2.73	 2.76	 4.624844e+01	 
MRI_snacks_123	 1	 1	 04	 2	 11	 4.801494e+01	 Tortit.bmp	 Dubonim.bmp	 45	 43	 1	 y	 2	 0	 1138.31	 2.80	 3.16	 4.964841e+01	 
MRI_snacks_123	 1	 1	 04	 2	 12	 5.301494e+01	 CrunchBisquitWhite2.bmp	 KinderBuenoWhite2.bmp	 7	 9	 1	 b	 1	 1	 1094.31	 5.96	 5.47	 5.461530e+01	 
MRI_snacks_123	 1	 1	 04	 2	 13	 5.601504e+01	 KinderBuenoWhite2.bmp	 ChocolateParaCookies5.bmp	 9	 10	 0	 y	 1	 1	 1471.22	 5.47	 5.42	 5.798196e+01	 
MRI_snacks_123	 1	 1	 04	 2	 14	 6.601665e+01	 ChocolateParaCookies5.bmp	 Popco.bmp	 10	 16	 1	 b	 1	 1	 977.60	 5.42	 4.96	 6.749857e+01	 
MRI_snacks_123	 1	 1	 04	 2	 15	 7.201837e+01	 BambaSweet.bmp	 KashitSour.bmp	 47	 49	 1	 b	 2	 1	 916.88	 2.80	 2.76	 7.343480e+01	 
MRI_snacks_123	 1	 1	 04	 2	 16	 7.501815e+01	 BisliGrill.bmp	 BisliOnion.bmp	 17	 12	 0	 y	 1	 1	 1071.10	 4.96	 5.36	 7.658522e+01	 
MRI_snacks_123	 1	 1	 04	 2	 17	 7.901883e+01	 BisliPizza3.bmp	 HappyHippo.bmp	 51	 53	 0	 x	 2	 999	 999000.00	 2.73	 2.69	 8.101942e+01	 
MRI_snacks_123	 1	 1	 04	 2	 18	 8.401966e+01	 HispusimShatiah.bmp	 Cheetos.bmp	 55	 5	 0	 y	 4	 1	 661.60	 2.16	 5.96	 8.518233e+01	 
MRI_snacks_123	 1	 1	 04	 2	 19	 9.102094e+01	 ChocolateParaCookies5.bmp	 PesekZman.bmp	 10	 14	 1	 b	 1	 1	 873.30	 5.42	 5.20	 9.238800e+01	 
MRI_snacks_123	 1	 1	 04	 2	 20	 9.602183e+01	 ClickBlackWhite3.bmp	 ClickXLwhite4.bmp	 11	 15	 0	 y	 1	 1	 921.43	 5.38	 5.13	 9.743890e+01	 
MRI_snacks_123	 1	 1	 04	 2	 21	 9.901567e+01	 Shugi.bmp	 SkittlesSour4.bmp	 52	 48	 1	 b	 2	 1	 841.57	 2.71	 2.76	 1.003561e+02	 
MRI_snacks_123	 1	 1	 04	 2	 22	 1.050157e+02	 ClickBalls5.bmp	 ClickXLwhite4.bmp	 8	 15	 0	 b	 1	 0	 823.51	 5.93	 5.13	 1.063404e+02	 
MRI_snacks_123	 1	 1	 04	 2	 23	 1.090158e+02	 PesekZman.bmp	 DoritosSourSpicy.bmp	 14	 13	 0	 b	 1	 0	 859.47	 5.20	 5.24	 1.103744e+02	 
MRI_snacks_123	 1	 1	 04	 2	 24	 1.210160e+02	 Tictac.bmp	 Bamba.bmp	 46	 50	 0	 y	 2	 1	 757.31	 2.80	 2.73	 1.222765e+02	 
MRI_snacks_123	 1	 1	 04	 2	 25	 1.240160e+02	 Twist.bmp	 Shugi.bmp	 54	 52	 0	 y	 2	 1	 811.27	 2.36	 2.71	 1.253328e+02	 
MRI_snacks_123	 1	 1	 04	 2	 26	 1.270160e+02	 CrunchShokoVanil.bmp	 Tictac.bmp	 44	 46	 1	 b	 2	 1	 686.24	 2.91	 2.80	 1.281996e+02	 
MRI_snacks_123	 1	 1	 04	 2	 27	 1.310160e+02	 DoritosSourSpicy.bmp	 ClickBalls5.bmp	 13	 8	 1	 y	 1	 0	 817.24	 5.24	 5.93	 1.323329e+02	 
MRI_snacks_123	 1	 1	 04	 2	 28	 1.370161e+02	 Tictac.bmp	 HappyHippo.bmp	 46	 53	 0	 x	 2	 999	 999000.00	 2.80	 2.69	 1.390164e+02	 
MRI_snacks_123	 1	 1	 04	 2	 29	 1.400183e+02	 BisliOnion.bmp	 PesekZman.bmp	 12	 14	 1	 b	 1	 1	 921.97	 5.36	 5.20	 1.414331e+02	 
MRI_snacks_123	 1	 1	 04	 2	 30	 1.490163e+02	 Popco.bmp	 CrunchBisquitWhite2.bmp	 16	 7	 0	 y	 1	 1	 774.91	 4.96	 5.96	 1.502831e+02	 
MRI_snacks_123	 1	 1	 04	 2	 31	 1.530163e+02	 CrunchBisquitWhite2.bmp	 BisliGrill.bmp	 7	 17	 1	 b	 1	 1	 761.94	 5.96	 4.96	 1.542833e+02	 
MRI_snacks_123	 1	 1	 04	 2	 32	 1.570164e+02	 Popco.bmp	 BisliOnion.bmp	 16	 12	 0	 y	 1	 1	 863.88	 4.96	 5.36	 1.583833e+02	 
MRI_snacks_123	 1	 1	 04	 2	 33	 1.600192e+02	 Tictac.bmp	 Tortit.bmp	 46	 45	 0	 y	 2	 1	 920.01	 2.80	 2.80	 1.614334e+02	 
MRI_snacks_123	 1	 1	 04	 2	 34	 1.630168e+02	 KinderBuenoWhite2.bmp	 ClickXLwhite4.bmp	 9	 15	 0	 y	 1	 1	 968.47	 5.47	 5.13	 1.644839e+02	 
MRI_snacks_123	 1	 1	 04	 2	 35	 1.730185e+02	 HispusimShatiah.bmp	 ClickXLbrown4.bmp	 55	 6	 0	 y	 4	 1	 701.78	 2.16	 5.96	 1.742190e+02	 
MRI_snacks_123	 1	 1	 04	 2	 36	 1.770192e+02	 ClickBlackWhite3.bmp	 BisliOnion.bmp	 11	 12	 0	 y	 1	 1	 957.05	 5.38	 5.36	 1.784697e+02	 
MRI_snacks_123	 1	 1	 04	 2	 37	 1.850206e+02	 Dubonim.bmp	 CrunchShokoVanil.bmp	 43	 44	 0	 y	 2	 1	 906.64	 3.16	 2.91	 1.864209e+02	 
MRI_snacks_123	 1	 1	 04	 2	 38	 1.880215e+02	 Tortit.bmp	 Twist.bmp	 45	 54	 1	 b	 2	 1	 992.73	 2.80	 2.36	 1.895049e+02	 
