subjectID	scanner	order	block	run	trial	onsettime	ImageLeft	ImageRight	bidIndexLeft	bidIndexRight	IsleftGo	Response	PairType	Outcome	RT	bidLeft	bidRight	ixationTime	
MRI_snacks_138	 1	 2	 04	 2	 1	 2.019426e+00	 ClickBisquit2.bmp	 PesekZman.bmp	 48	 47	 1	 b	 2	 1	 902.40	 0.16	 0.16	 3.420795e+00	 
MRI_snacks_138	 1	 2	 04	 2	 2	 5.019954e+00	 Twist.bmp	 KifkefMaklot2.bmp	 43	 50	 1	 b	 2	 1	 816.89	 0.24	 0.13	 6.337033e+00	 
MRI_snacks_138	 1	 2	 04	 2	 3	 8.020541e+00	 Mars.bmp	 Mentos.bmp	 7	 14	 0	 y	 1	 1	 804.29	 2.73	 1.87	 9.334740e+00	 
MRI_snacks_138	 1	 2	 04	 2	 4	 1.302128e+01	 Apropo.bmp	 Dubonim.bmp	 8	 15	 1	 b	 1	 1	 764.55	 2.71	 1.84	 1.428831e+01	 
MRI_snacks_138	 1	 2	 04	 2	 5	 1.802222e+01	 KifkefMaklot2.bmp	 CrunchBisquitBrown3.bmp	 50	 51	 0	 b	 2	 0	 773.62	 0.13	 0.11	 1.930160e+01	 
MRI_snacks_138	 1	 2	 04	 2	 6	 2.502347e+01	 WerthersOriginal.bmp	 Tictac.bmp	 11	 12	 1	 b	 1	 1	 757.38	 2.29	 2.04	 2.628501e+01	 
MRI_snacks_138	 1	 2	 04	 2	 7	 2.902416e+01	 Mars.bmp	 Apropo.bmp	 7	 8	 0	 y	 1	 1	 633.68	 2.73	 2.71	 3.015778e+01	 
MRI_snacks_138	 1	 2	 04	 2	 8	 3.202468e+01	 Twist.bmp	 ClickXLbrown4.bmp	 43	 44	 1	 y	 2	 0	 810.15	 0.24	 0.20	 3.333518e+01	 
MRI_snacks_138	 1	 2	 04	 2	 9	 3.902589e+01	 Mentos.bmp	 Egozi.bmp	 14	 18	 1	 b	 1	 1	 643.94	 1.87	 1.76	 4.016853e+01	 
MRI_snacks_138	 1	 2	 04	 2	 10	 4.302663e+01	 Twist.bmp	 PesekZman.bmp	 43	 47	 1	 y	 2	 0	 663.20	 0.24	 0.16	 4.419373e+01	 
MRI_snacks_138	 1	 2	 04	 2	 11	 4.602718e+01	 ChocolateParaCookies5.bmp	 Egozi.bmp	 17	 18	 1	 b	 1	 1	 668.65	 1.76	 1.76	 4.719410e+01	 
MRI_snacks_138	 1	 2	 04	 2	 12	 5.002785e+01	 KifkefMaklot2.bmp	 ClickBisquit2.bmp	 50	 48	 0	 y	 2	 1	 728.00	 0.13	 0.16	 5.125226e+01	 
MRI_snacks_138	 1	 2	 04	 2	 13	 5.402855e+01	 PesekZman.bmp	 Hit.bmp	 47	 54	 0	 y	 2	 1	 827.29	 0.16	 0.09	 5.535209e+01	 
MRI_snacks_138	 1	 2	 04	 2	 14	 5.902944e+01	 BambaSweet.bmp	 KifkefMaklot2.bmp	 46	 50	 1	 b	 2	 1	 716.39	 0.18	 0.13	 6.024636e+01	 
MRI_snacks_138	 1	 2	 04	 2	 15	 6.303011e+01	 Mars.bmp	 ClickXLwhite4.bmp	 7	 16	 0	 y	 1	 1	 678.72	 2.73	 1.82	 6.420233e+01	 
MRI_snacks_138	 1	 2	 04	 2	 16	 6.703087e+01	 GumiSnakes3.bmp	 Mentos.bmp	 10	 14	 0	 b	 1	 0	 670.97	 2.38	 1.87	 6.819781e+01	 
MRI_snacks_138	 1	 2	 04	 2	 17	 7.001887e+01	 Egozi.bmp	 WerthersOriginal.bmp	 18	 11	 0	 y	 1	 1	 647.94	 1.76	 2.29	 7.116900e+01	 
MRI_snacks_138	 1	 2	 04	 2	 18	 8.001899e+01	 Bamba.bmp	 ClickBisquit2.bmp	 52	 48	 0	 b	 2	 0	 882.85	 0.09	 0.16	 8.140250e+01	 
MRI_snacks_138	 1	 2	 04	 2	 19	 8.401908e+01	 BisliBbq.bmp	 Hit.bmp	 45	 54	 0	 y	 2	 1	 755.75	 0.20	 0.09	 8.528591e+01	 
MRI_snacks_138	 1	 2	 04	 2	 20	 8.701909e+01	 CrunchBisquitBrown3.bmp	 BisliBbq.bmp	 51	 45	 1	 y	 2	 0	 1239.74	 0.11	 0.20	 8.876933e+01	 
MRI_snacks_138	 1	 2	 04	 2	 21	 9.001911e+01	 PesekZman.bmp	 BambaSweet.bmp	 47	 46	 0	 y	 2	 1	 592.72	 0.16	 0.18	 9.111932e+01	 
MRI_snacks_138	 1	 2	 04	 2	 22	 9.401919e+01	 GumiSnakes3.bmp	 Cheetos.bmp	 10	 9	 0	 b	 1	 0	 779.64	 2.38	 2.67	 9.530274e+01	 
MRI_snacks_138	 1	 2	 04	 2	 23	 1.000199e+02	 ChocolateParaCookies5.bmp	 Tictac.bmp	 17	 12	 1	 b	 1	 1	 688.96	 1.76	 2.04	 1.012195e+02	 
MRI_snacks_138	 1	 2	 04	 2	 24	 1.030205e+02	 BisliBbq.bmp	 BambaSweet.bmp	 45	 46	 0	 y	 2	 1	 735.39	 0.20	 0.18	 1.042542e+02	 
MRI_snacks_138	 1	 2	 04	 2	 25	 1.060210e+02	 ClickXLbrown4.bmp	 Hit.bmp	 44	 54	 0	 b	 2	 0	 666.89	 0.20	 0.09	 1.071880e+02	 
MRI_snacks_138	 1	 2	 04	 2	 26	 1.100217e+02	 CrunchBisquitBrown3.bmp	 ClickXLbrown4.bmp	 51	 44	 1	 y	 2	 0	 704.09	 0.11	 0.20	 1.112221e+02	 
MRI_snacks_138	 1	 2	 04	 2	 27	 1.130222e+02	 Twix.bmp	 DoritosNatural.bmp	 5	 56	 1	 y	 4	 0	 739.60	 2.91	 0.07	 1.142697e+02	 
MRI_snacks_138	 1	 2	 04	 2	 28	 1.160228e+02	 WerthersOriginal.bmp	 Dubonim.bmp	 11	 15	 1	 b	 1	 1	 724.06	 2.29	 1.84	 1.172531e+02	 
MRI_snacks_138	 1	 2	 04	 2	 29	 1.300252e+02	 Mars.bmp	 WerthersOriginal.bmp	 7	 11	 0	 y	 1	 1	 737.64	 2.73	 2.29	 1.312589e+02	 
MRI_snacks_138	 1	 2	 04	 2	 30	 1.400269e+02	 Loacker.bmp	 BambaSweet.bmp	 53	 46	 0	 y	 2	 1	 796.94	 0.09	 0.18	 1.413273e+02	 
MRI_snacks_138	 1	 2	 04	 2	 31	 1.460280e+02	 Tictac.bmp	 Cheetos.bmp	 12	 9	 0	 y	 1	 1	 688.90	 2.04	 2.67	 1.472201e+02	 
MRI_snacks_138	 1	 2	 04	 2	 32	 1.500286e+02	 Dubonim.bmp	 ClickXLwhite4.bmp	 15	 16	 0	 y	 1	 1	 654.22	 1.84	 1.82	 1.511790e+02	 
MRI_snacks_138	 1	 2	 04	 2	 33	 1.560297e+02	 Mentos.bmp	 Tictac.bmp	 14	 12	 1	 b	 1	 1	 845.12	 1.87	 2.04	 1.573703e+02	 
MRI_snacks_138	 1	 2	 04	 2	 34	 1.600304e+02	 Hit.bmp	 KifkefMaklot2.bmp	 54	 50	 1	 b	 2	 1	 756.39	 0.09	 0.13	 1.612869e+02	 
MRI_snacks_138	 1	 2	 04	 2	 35	 1.660314e+02	 ChocolateParaCookies5.bmp	 Mars.bmp	 17	 7	 1	 b	 1	 1	 747.40	 1.76	 2.73	 1.672704e+02	 
MRI_snacks_138	 1	 2	 04	 2	 36	 1.780204e+02	 Dubonim.bmp	 Mentos.bmp	 15	 14	 0	 y	 1	 1	 782.46	 1.84	 1.87	 1.793039e+02	 
MRI_snacks_138	 1	 2	 04	 2	 37	 1.810205e+02	 Twix.bmp	 ClickBalls5.bmp	 5	 55	 1	 b	 4	 1	 756.36	 2.91	 0.09	 1.822844e+02	 
MRI_snacks_138	 1	 2	 04	 2	 38	 1.880206e+02	 BambaSweet.bmp	 ClickXLbrown4.bmp	 46	 44	 1	 b	 2	 1	 866.20	 0.18	 0.20	 1.893873e+02	 
