subjectID	scanner	order	block	run	trial	onsettime	ImageLeft	ImageRight	bidIndexLeft	bidIndexRight	IsleftGo	Response	PairType	Outcome	RT	bidLeft	bidRight	ixationTime	
MRI_snacks_119	 1	 1	 01	 2	 1	 2.028219e+00	 Mars.bmp	 GumiSnakes3.bmp	 7	 16	 1	 y	 1	 0	 773.76	 5.89	 5.11	 3.295414e+00	 
MRI_snacks_119	 1	 1	 01	 2	 2	 6.028922e+00	 Cheetos.bmp	 Tictac.bmp	 44	 49	 1	 b	 2	 1	 749.05	 1.76	 1.60	 7.279457e+00	 
MRI_snacks_119	 1	 1	 01	 2	 3	 9.029469e+00	 KinderBuenoBrown3.bmp	 CrunchBisquitBrown3.bmp	 8	 18	 0	 y	 1	 1	 671.51	 5.89	 5.07	 1.019651e+01	 
MRI_snacks_119	 1	 1	 01	 2	 4	 1.403042e+01	 Hit.bmp	 SkittlesSour4.bmp	 14	 10	 0	 y	 1	 1	 815.56	 5.33	 5.87	 1.534393e+01	 
MRI_snacks_119	 1	 1	 01	 2	 5	 1.702707e+01	 Loacker.bmp	 GumiWine2.bmp	 46	 52	 0	 y	 2	 1	 1037.89	 1.64	 0.78	 1.856454e+01	 
MRI_snacks_119	 1	 1	 01	 2	 6	 2.003138e+01	 Taami.bmp	 Kitkat.bmp	 13	 9	 1	 y	 1	 0	 978.60	 5.49	 5.89	 2.149862e+01	 
MRI_snacks_119	 1	 1	 01	 2	 7	 3.402739e+01	 Mentos.bmp	 GumiWine2.bmp	 43	 52	 0	 y	 2	 1	 858.58	 1.84	 0.78	 3.538409e+01	 
MRI_snacks_119	 1	 1	 01	 2	 8	 3.802744e+01	 Egozi.bmp	 GumiWine2.bmp	 48	 52	 0	 y	 2	 1	 889.53	 1.60	 0.78	 3.941827e+01	 
MRI_snacks_119	 1	 1	 01	 2	 9	 4.202744e+01	 Tortit.bmp	 ClickBisquit2.bmp	 55	 5	 0	 y	 4	 1	 988.53	 0.69	 5.91	 4.351914e+01	 
MRI_snacks_119	 1	 1	 01	 2	 10	 4.502751e+01	 Hit.bmp	 ChocolateParaSucariotKoftzot2.bmp	 14	 12	 0	 y	 1	 1	 1018.46	 5.33	 5.62	 4.654439e+01	 
MRI_snacks_119	 1	 1	 01	 2	 11	 4.802752e+01	 Taami.bmp	 GumiSnakes3.bmp	 13	 16	 1	 y	 1	 0	 612.46	 5.49	 5.11	 4.913678e+01	 
MRI_snacks_119	 1	 1	 01	 2	 12	 5.302761e+01	 Bamba.bmp	 ChocolateParaMilk3.bmp	 15	 17	 1	 y	 1	 0	 966.38	 5.27	 5.07	 5.449447e+01	 
MRI_snacks_119	 1	 1	 01	 2	 13	 5.602763e+01	 ClickXLbrown4.bmp	 Twist.bmp	 6	 56	 1	 b	 4	 1	 914.35	 5.89	 0.69	 5.743823e+01	 
MRI_snacks_119	 1	 1	 01	 2	 14	 6.602780e+01	 Loacker.bmp	 BisliBbq.bmp	 46	 53	 0	 y	 2	 1	 1104.17	 1.64	 0.73	 6.762788e+01	 
MRI_snacks_119	 1	 1	 01	 2	 15	 7.202787e+01	 Hit.bmp	 Taami.bmp	 14	 13	 0	 y	 1	 1	 986.11	 5.33	 5.49	 7.351137e+01	 
MRI_snacks_119	 1	 1	 01	 2	 16	 7.502795e+01	 SkittlesSour4.bmp	 GumiSnakes3.bmp	 10	 16	 1	 y	 1	 0	 736.03	 5.87	 5.11	 7.626158e+01	 
MRI_snacks_119	 1	 1	 01	 2	 17	 7.902792e+01	 Cheetos.bmp	 BisliPizza3.bmp	 44	 51	 1	 b	 2	 1	 1407.06	 1.76	 0.87	 8.092811e+01	 
MRI_snacks_119	 1	 1	 01	 2	 18	 8.402807e+01	 BisliPizza3.bmp	 BambaNugat.bmp	 51	 50	 0	 y	 2	 1	 895.91	 0.87	 1.60	 8.541154e+01	 
MRI_snacks_119	 1	 1	 01	 2	 19	 9.102816e+01	 GumiSnakes3.bmp	 CrunchBisquitBrown3.bmp	 16	 18	 0	 y	 1	 1	 729.82	 5.11	 5.07	 9.224473e+01	 
MRI_snacks_119	 1	 1	 01	 2	 20	 9.602826e+01	 SkittlesSour4.bmp	 KinderBuenoBrown3.bmp	 10	 8	 1	 y	 1	 0	 694.71	 5.87	 5.89	 9.721177e+01	 
MRI_snacks_119	 1	 1	 01	 2	 21	 9.902845e+01	 BisliPizza3.bmp	 HappyHippo.bmp	 51	 47	 0	 y	 2	 1	 738.53	 0.87	 1.62	 1.002622e+02	 
MRI_snacks_119	 1	 1	 01	 2	 22	 1.050296e+02	 Mars.bmp	 Hit.bmp	 7	 14	 1	 b	 1	 1	 826.37	 5.89	 5.33	 1.063466e+02	 
MRI_snacks_119	 1	 1	 01	 2	 23	 1.090303e+02	 BisliBbq.bmp	 Mentos.bmp	 53	 43	 1	 x	 2	 999	 999000.00	 0.73	 1.84	 1.110286e+02	 
MRI_snacks_119	 1	 1	 01	 2	 24	 1.210285e+02	 GumiWine2.bmp	 Tictac.bmp	 52	 49	 1	 b	 2	 1	 809.52	 0.78	 1.60	 1.223329e+02	 
MRI_snacks_119	 1	 1	 01	 2	 25	 1.240285e+02	 SkittlesSour4.bmp	 Kitkat.bmp	 10	 9	 1	 y	 1	 0	 856.45	 5.87	 5.89	 1.253833e+02	 
MRI_snacks_119	 1	 1	 01	 2	 26	 1.270285e+02	 BambaNugat.bmp	 Tictac.bmp	 50	 49	 1	 b	 2	 1	 716.44	 1.60	 1.60	 1.282455e+02	 
MRI_snacks_119	 1	 1	 01	 2	 27	 1.310286e+02	 Kitkat.bmp	 Mars.bmp	 9	 7	 0	 y	 1	 1	 780.33	 5.89	 5.89	 1.323013e+02	 
MRI_snacks_119	 1	 1	 01	 2	 28	 1.370287e+02	 CrunchBisquitBrown3.bmp	 ClickXLwhite4.bmp	 18	 11	 1	 b	 1	 1	 1089.29	 5.07	 5.69	 1.386189e+02	 
MRI_snacks_119	 1	 1	 01	 2	 29	 1.400288e+02	 ChocolateParaSucariotKoftzot2.bmp	 ChocolateParaMilk3.bmp	 12	 17	 1	 y	 1	 0	 1062.19	 5.62	 5.07	 1.415862e+02	 
MRI_snacks_119	 1	 1	 01	 2	 30	 1.490289e+02	 Mentos.bmp	 BagaleShtuhim.bmp	 43	 45	 0	 y	 2	 1	 1181.07	 1.84	 1.76	 1.507043e+02	 
MRI_snacks_119	 1	 1	 01	 2	 31	 1.530289e+02	 BagaleShtuhim.bmp	 Egozi.bmp	 45	 48	 1	 b	 2	 1	 1130.03	 1.76	 1.60	 1.546550e+02	 
MRI_snacks_119	 1	 1	 01	 2	 32	 1.570290e+02	 KinderBuenoBrown3.bmp	 Mars.bmp	 8	 7	 0	 b	 1	 0	 984.93	 5.89	 5.89	 1.585126e+02	 
MRI_snacks_119	 1	 1	 01	 2	 33	 1.600290e+02	 Cheetos.bmp	 Egozi.bmp	 44	 48	 1	 b	 2	 1	 946.93	 1.76	 1.60	 1.614728e+02	 
MRI_snacks_119	 1	 1	 01	 2	 34	 1.630290e+02	 Tictac.bmp	 BagaleShtuhim.bmp	 49	 45	 0	 y	 2	 1	 1083.97	 1.60	 1.76	 1.646126e+02	 
MRI_snacks_119	 1	 1	 01	 2	 35	 1.730293e+02	 HappyHippo.bmp	 Mentos.bmp	 47	 43	 1	 b	 2	 1	 833.72	 1.62	 1.84	 1.743628e+02	 
MRI_snacks_119	 1	 1	 01	 2	 36	 1.770293e+02	 ClickXLwhite4.bmp	 Taami.bmp	 11	 13	 0	 b	 1	 0	 1066.70	 5.69	 5.49	 1.785960e+02	 
MRI_snacks_119	 1	 1	 01	 2	 37	 1.850293e+02	 Keifli.bmp	 Cheetos.bmp	 54	 44	 0	 y	 2	 1	 715.69	 0.71	 1.76	 1.862463e+02	 
MRI_snacks_119	 1	 1	 01	 2	 38	 1.880295e+02	 Tictac.bmp	 HappyHippo.bmp	 49	 47	 0	 y	 2	 1	 756.51	 1.60	 1.62	 1.892796e+02	 
