subjectID	scanner	order	block	run	trial	onsettime	ImageLeft	ImageRight	bidIndexLeft	bidIndexRight	IsleftGo	Response	PairType	Outcome	RT	bidLeft	bidRight	ixationTime	
MRI_snacks_135	 1	 1	 01	 2	 1	 2.031590e+00	 ClickBisquit2.bmp	 ClickBlackWhite3.bmp	 11	 18	 0	 b	 1	 0	 910.43	 3.82	 2.71	 3.431899e+00	 
MRI_snacks_135	 1	 1	 01	 2	 2	 5.031745e+00	 KifkefMaklot2.bmp	 ChocolateParaMilk3.bmp	 54	 44	 0	 y	 2	 1	 923.28	 0.02	 0.09	 6.448695e+00	 
MRI_snacks_135	 1	 1	 01	 2	 3	 8.031770e+00	 KifkefMaklot2.bmp	 KashitSour.bmp	 54	 47	 0	 b	 2	 0	 1003.25	 0.02	 0.04	 9.531930e+00	 
MRI_snacks_135	 1	 1	 01	 2	 4	 1.303199e+01	 Twix.bmp	 CrunchBisquitWhite2.bmp	 17	 15	 0	 b	 1	 0	 978.03	 2.73	 2.80	 1.449901e+01	 
MRI_snacks_135	 1	 1	 01	 2	 5	 1.803290e+01	 Kitkat.bmp	 Cheetos.bmp	 5	 55	 1	 b	 4	 1	 1018.11	 6.00	 0.02	 1.954985e+01	 
MRI_snacks_135	 1	 1	 01	 2	 6	 2.503194e+01	 GumiSnakes3.bmp	 HappyHippo.bmp	 48	 52	 0	 y	 2	 1	 1168.06	 0.04	 0.04	 2.670125e+01	 
MRI_snacks_135	 1	 1	 01	 2	 7	 2.903206e+01	 HappyHippo.bmp	 DoritosSourSpicy.bmp	 52	 51	 1	 x	 2	 999	 999000.00	 0.04	 0.04	 3.103218e+01	 
MRI_snacks_135	 1	 1	 01	 2	 8	 3.203209e+01	 ClickBlackWhite3.bmp	 ClickBalls5.bmp	 18	 9	 1	 y	 1	 0	 1264.97	 2.71	 4.93	 3.378586e+01	 
MRI_snacks_135	 1	 1	 01	 2	 9	 3.903216e+01	 ClickXLbrown4.bmp	 ClickBisquit2.bmp	 10	 11	 1	 y	 1	 0	 737.92	 4.84	 3.82	 4.027026e+01	 
MRI_snacks_135	 1	 1	 01	 2	 10	 4.303224e+01	 WerthersOriginal.bmp	 Mentos.bmp	 46	 50	 0	 b	 2	 0	 975.77	 0.07	 0.04	 4.450443e+01	 
MRI_snacks_135	 1	 1	 01	 2	 11	 4.603231e+01	 BisliGrill.bmp	 CrunchBisquitWhite2.bmp	 14	 15	 0	 b	 1	 0	 959.70	 3.27	 2.80	 4.748828e+01	 
MRI_snacks_135	 1	 1	 01	 2	 12	 5.003230e+01	 Tortit.bmp	 KifkefMaklot2.bmp	 45	 54	 1	 b	 2	 1	 914.71	 0.07	 0.02	 5.143876e+01	 
MRI_snacks_135	 1	 1	 01	 2	 13	 5.403247e+01	 GumiSnakes3.bmp	 Tortit.bmp	 48	 45	 0	 b	 2	 0	 876.54	 0.04	 0.07	 5.540631e+01	 
MRI_snacks_135	 1	 1	 01	 2	 14	 5.903244e+01	 Tortit.bmp	 CrunchBisquitBrown3.bmp	 45	 49	 1	 y	 2	 0	 1357.57	 0.07	 0.04	 6.089022e+01	 
MRI_snacks_135	 1	 1	 01	 2	 15	 6.303263e+01	 ChocolateParaSucariotKoftzot2.bmp	 ClickBisquit2.bmp	 13	 11	 1	 b	 1	 1	 897.38	 3.80	 3.82	 6.442440e+01	 
MRI_snacks_135	 1	 1	 01	 2	 16	 6.703259e+01	 CrunchBisquitWhite2.bmp	 BisliBbq.bmp	 15	 8	 1	 y	 1	 0	 1016.42	 2.80	 5.00	 6.854953e+01	 
MRI_snacks_135	 1	 1	 01	 2	 17	 7.003261e+01	 Twix.bmp	 ClickXLbrown4.bmp	 17	 10	 0	 b	 1	 0	 1180.41	 2.73	 4.84	 7.170917e+01	 
MRI_snacks_135	 1	 1	 01	 2	 18	 8.003279e+01	 Mentos.bmp	 DoritosSourSpicy.bmp	 50	 51	 1	 y	 2	 0	 858.22	 0.04	 0.04	 8.138306e+01	 
MRI_snacks_135	 1	 1	 01	 2	 19	 8.402778e+01	 Twix.bmp	 PesekZman.bmp	 17	 12	 0	 b	 1	 0	 1123.24	 2.73	 3.82	 8.564970e+01	 
MRI_snacks_135	 1	 1	 01	 2	 20	 8.703296e+01	 ClickBlackWhite3.bmp	 KinderBuenoBrown3.bmp	 18	 16	 1	 y	 1	 0	 1251.05	 2.71	 2.78	 8.878312e+01	 
MRI_snacks_135	 1	 1	 01	 2	 21	 9.003289e+01	 BisliBbq.bmp	 PesekZman.bmp	 8	 12	 0	 y	 1	 1	 1023.13	 5.00	 3.82	 9.154993e+01	 
MRI_snacks_135	 1	 1	 01	 2	 22	 9.403291e+01	 KashitSour.bmp	 Tapuchips.bmp	 47	 43	 1	 y	 2	 0	 874.10	 0.04	 0.09	 9.539989e+01	 
MRI_snacks_135	 1	 1	 01	 2	 23	 1.000331e+02	 PesekZman.bmp	 ClickBalls5.bmp	 12	 9	 1	 y	 1	 0	 1096.96	 3.82	 4.93	 1.016165e+02	 
MRI_snacks_135	 1	 1	 01	 2	 24	 1.030331e+02	 KashitSour.bmp	 CrunchBisquitBrown3.bmp	 47	 49	 1	 y	 2	 0	 860.98	 0.04	 0.04	 1.043833e+02	 
MRI_snacks_135	 1	 1	 01	 2	 25	 1.060316e+02	 Smarties.bmp	 Bamba.bmp	 56	 6	 0	 y	 4	 1	 861.50	 0.02	 6.00	 1.073834e+02	 
MRI_snacks_135	 1	 1	 01	 2	 26	 1.100323e+02	 Tapuchips.bmp	 Tortit.bmp	 43	 45	 0	 b	 2	 0	 987.75	 0.09	 0.07	 1.115168e+02	 
MRI_snacks_135	 1	 1	 01	 2	 27	 1.130163e+02	 CrunchBisquitBrown3.bmp	 HappyHippo.bmp	 49	 52	 0	 b	 2	 0	 906.77	 0.04	 0.04	 1.144335e+02	 
MRI_snacks_135	 1	 1	 01	 2	 28	 1.160165e+02	 BisliOnion.bmp	 BisliGrill.bmp	 7	 14	 1	 b	 1	 1	 1000.57	 5.96	 3.27	 1.175337e+02	 
MRI_snacks_135	 1	 1	 01	 2	 29	 1.300204e+02	 Mentos.bmp	 KifkefMaklot2.bmp	 50	 54	 1	 y	 2	 0	 1151.61	 0.04	 0.02	 1.316838e+02	 
MRI_snacks_135	 1	 1	 01	 2	 30	 1.400337e+02	 BambaSweet.bmp	 Tapuchips.bmp	 53	 43	 1	 y	 2	 0	 1111.35	 0.04	 0.09	 1.416379e+02	 
MRI_snacks_135	 1	 1	 01	 2	 31	 1.460219e+02	 Tortit.bmp	 WerthersOriginal.bmp	 45	 46	 1	 y	 2	 0	 1275.12	 0.07	 0.07	 1.478056e+02	 
MRI_snacks_135	 1	 1	 01	 2	 32	 1.500226e+02	 WerthersOriginal.bmp	 HappyHippo.bmp	 46	 52	 0	 b	 2	 0	 1154.47	 0.07	 0.04	 1.516839e+02	 
MRI_snacks_135	 1	 1	 01	 2	 33	 1.560237e+02	 BisliGrill.bmp	 ClickBlackWhite3.bmp	 14	 18	 0	 b	 1	 0	 1046.35	 3.27	 2.71	 1.575740e+02	 
MRI_snacks_135	 1	 1	 01	 2	 34	 1.600243e+02	 PesekZman.bmp	 ClickBisquit2.bmp	 12	 11	 1	 y	 1	 0	 1142.71	 3.82	 3.82	 1.616749e+02	 
MRI_snacks_135	 1	 1	 01	 2	 35	 1.660254e+02	 ClickBalls5.bmp	 BisliOnion.bmp	 9	 7	 0	 y	 1	 1	 1030.61	 4.93	 5.96	 1.675591e+02	 
MRI_snacks_135	 1	 1	 01	 2	 36	 1.780275e+02	 ClickXLbrown4.bmp	 BisliBbq.bmp	 10	 8	 1	 y	 1	 0	 1133.53	 4.84	 5.00	 1.796612e+02	 
MRI_snacks_135	 1	 1	 01	 2	 37	 1.810280e+02	 Twix.bmp	 ClickBlackWhite3.bmp	 17	 18	 0	 y	 1	 1	 1064.99	 2.73	 2.71	 1.825950e+02	 
MRI_snacks_135	 1	 1	 01	 2	 38	 1.880292e+02	 Tapuchips.bmp	 ChocolateParaMilk3.bmp	 43	 44	 0	 y	 2	 1	 901.85	 0.09	 0.09	 1.894345e+02	 
