subjectID	scanner	order	block	run	trial	onsettime	ImageLeft	ImageRight	bidIndexLeft	bidIndexRight	IsleftGo	Response	PairType	Outcome	RT	bidLeft	bidRight	ixationTime	
MRI_snacks_135	 1	 1	 03	 1	 1	 2.010901e+00	 KifkefMaklot2.bmp	 BambaSweet.bmp	 54	 53	 0	 b	 2	 0	 1015.36	 0.02	 0.04	 3.528772e+00	 
MRI_snacks_135	 1	 1	 03	 1	 2	 6.011080e+00	 ClickBalls5.bmp	 ClickBlackWhite3.bmp	 9	 18	 0	 b	 1	 0	 1168.18	 4.93	 2.71	 7.677835e+00	 
MRI_snacks_135	 1	 1	 03	 1	 3	 1.301107e+01	 Tortit.bmp	 Tapuchips.bmp	 45	 43	 1	 y	 2	 0	 894.19	 0.07	 0.09	 1.441126e+01	 
MRI_snacks_135	 1	 1	 03	 1	 4	 1.601122e+01	 KifkefMaklot2.bmp	 ChocolateParaMilk3.bmp	 54	 44	 0	 y	 2	 1	 1058.06	 0.02	 0.09	 1.757802e+01	 
MRI_snacks_135	 1	 1	 03	 1	 5	 2.101126e+01	 ChocolateParaMilk3.bmp	 DoritosSourSpicy.bmp	 44	 51	 1	 b	 2	 1	 874.00	 0.09	 0.04	 2.239466e+01	 
MRI_snacks_135	 1	 1	 03	 1	 6	 3.101215e+01	 CrunchBisquitBrown3.bmp	 Mentos.bmp	 49	 50	 0	 b	 2	 0	 994.14	 0.04	 0.04	 3.251252e+01	 
MRI_snacks_135	 1	 1	 03	 1	 7	 3.401266e+01	 CrunchBisquitWhite2.bmp	 BisliBbq.bmp	 15	 8	 1	 y	 1	 0	 1402.62	 2.80	 5.00	 3.591320e+01	 
MRI_snacks_135	 1	 1	 03	 1	 8	 3.701312e+01	 Mentos.bmp	 WerthersOriginal.bmp	 50	 46	 1	 y	 2	 0	 1348.17	 0.04	 0.07	 3.886366e+01	 
MRI_snacks_135	 1	 1	 03	 1	 9	 4.601476e+01	 KinderBuenoBrown3.bmp	 ChocolateParaSucariotKoftzot2.bmp	 16	 13	 0	 y	 1	 1	 982.52	 2.78	 3.80	 4.749849e+01	 
MRI_snacks_135	 1	 1	 03	 1	 10	 4.901535e+01	 BisliBbq.bmp	 BisliOnion.bmp	 8	 7	 0	 y	 1	 1	 1025.91	 5.00	 5.96	 5.054508e+01	 
MRI_snacks_135	 1	 1	 03	 1	 11	 5.901703e+01	 Bamba.bmp	 Cheetos.bmp	 6	 55	 1	 b	 4	 1	 957.23	 6.00	 0.02	 6.046735e+01	 
MRI_snacks_135	 1	 1	 03	 1	 12	 6.401785e+01	 ClickXLbrown4.bmp	 BisliBbq.bmp	 10	 8	 1	 y	 1	 0	 1336.42	 4.84	 5.00	 6.585170e+01	 
MRI_snacks_135	 1	 1	 03	 1	 13	 6.901884e+01	 ChocolateParaSucariotKoftzot2.bmp	 BisliGrill.bmp	 13	 14	 1	 y	 1	 0	 947.38	 3.80	 3.27	 7.046213e+01	 
MRI_snacks_135	 1	 1	 03	 1	 14	 7.702020e+01	 Cheetos.bmp	 Kitkat.bmp	 55	 5	 0	 y	 4	 1	 916.07	 0.02	 6.00	 7.842883e+01	 
MRI_snacks_135	 1	 1	 03	 1	 15	 8.401216e+01	 BambaSweet.bmp	 WerthersOriginal.bmp	 53	 46	 1	 b	 2	 1	 817.10	 0.04	 0.07	 8.532891e+01	 
MRI_snacks_135	 1	 1	 03	 1	 16	 8.801221e+01	 HappyHippo.bmp	 KifkefMaklot2.bmp	 52	 54	 1	 y	 2	 0	 1254.05	 0.04	 0.02	 8.977254e+01	 
MRI_snacks_135	 1	 1	 03	 1	 17	 9.101230e+01	 PesekZman.bmp	 ClickBalls5.bmp	 12	 9	 1	 y	 1	 0	 1095.97	 3.82	 4.93	 9.261241e+01	 
MRI_snacks_135	 1	 1	 03	 1	 18	 9.601230e+01	 GumiSnakes3.bmp	 ChocolateParaMilk3.bmp	 48	 44	 0	 y	 2	 1	 855.97	 0.04	 0.09	 9.737387e+01	 
MRI_snacks_135	 1	 1	 03	 1	 19	 9.901237e+01	 GumiSnakes3.bmp	 HappyHippo.bmp	 48	 52	 0	 x	 2	 999	 999000.00	 0.04	 0.04	 1.010125e+02	 
MRI_snacks_135	 1	 1	 03	 1	 20	 1.070125e+02	 BisliOnion.bmp	 Twix.bmp	 7	 17	 1	 b	 1	 1	 749.74	 5.96	 2.73	 1.082626e+02	 
MRI_snacks_135	 1	 1	 03	 1	 21	 1.130126e+02	 BisliOnion.bmp	 ClickBalls5.bmp	 7	 9	 1	 b	 1	 1	 1045.72	 5.96	 4.93	 1.145627e+02	 
MRI_snacks_135	 1	 1	 03	 1	 22	 1.180127e+02	 Twix.bmp	 ClickBlackWhite3.bmp	 17	 18	 0	 b	 1	 0	 1186.61	 2.73	 2.71	 1.196961e+02	 
MRI_snacks_135	 1	 1	 03	 1	 23	 1.230127e+02	 ClickBlackWhite3.bmp	 ClickBisquit2.bmp	 18	 11	 1	 y	 1	 0	 938.58	 2.71	 3.82	 1.244461e+02	 
MRI_snacks_135	 1	 1	 03	 1	 24	 1.260127e+02	 Tapuchips.bmp	 Mentos.bmp	 43	 50	 0	 b	 2	 0	 873.54	 0.09	 0.04	 1.273796e+02	 
MRI_snacks_135	 1	 1	 03	 1	 25	 1.400145e+02	 ClickBisquit2.bmp	 PesekZman.bmp	 11	 12	 0	 b	 1	 0	 849.73	 3.82	 3.82	 1.413649e+02	 
MRI_snacks_135	 1	 1	 03	 1	 26	 1.430151e+02	 GumiSnakes3.bmp	 Tortit.bmp	 48	 45	 0	 y	 2	 1	 833.22	 0.04	 0.07	 1.443487e+02	 
MRI_snacks_135	 1	 1	 03	 1	 27	 1.470157e+02	 KifkefMaklot2.bmp	 Mentos.bmp	 54	 50	 0	 b	 2	 0	 830.60	 0.02	 0.04	 1.483495e+02	 
MRI_snacks_135	 1	 1	 03	 1	 28	 1.510165e+02	 BisliOnion.bmp	 KinderBuenoBrown3.bmp	 7	 16	 1	 b	 1	 1	 690.80	 5.96	 2.78	 1.522001e+02	 
MRI_snacks_135	 1	 1	 03	 1	 29	 1.540167e+02	 Tortit.bmp	 CrunchBisquitBrown3.bmp	 45	 49	 1	 y	 2	 0	 1015.53	 0.07	 0.04	 1.555340e+02	 
MRI_snacks_135	 1	 1	 03	 1	 30	 1.570175e+02	 BisliGrill.bmp	 ClickBlackWhite3.bmp	 14	 18	 0	 b	 1	 0	 835.71	 3.27	 2.71	 1.583511e+02	 
MRI_snacks_135	 1	 1	 03	 1	 31	 1.630186e+02	 CrunchBisquitBrown3.bmp	 KashitSour.bmp	 49	 47	 0	 b	 2	 0	 790.69	 0.04	 0.04	 1.643022e+02	 
MRI_snacks_135	 1	 1	 03	 1	 32	 1.690196e+02	 Tapuchips.bmp	 ChocolateParaMilk3.bmp	 43	 44	 0	 y	 2	 1	 1095.65	 0.09	 0.09	 1.706135e+02	 
MRI_snacks_135	 1	 1	 03	 1	 33	 1.720201e+02	 Twix.bmp	 PesekZman.bmp	 17	 12	 0	 b	 1	 0	 1033.17	 2.73	 3.82	 1.735538e+02	 
MRI_snacks_135	 1	 1	 03	 1	 34	 1.750207e+02	 ChocolateParaSucariotKoftzot2.bmp	 BisliBbq.bmp	 13	 8	 1	 b	 1	 1	 865.60	 3.80	 5.00	 1.763802e+02	 
MRI_snacks_135	 1	 1	 03	 1	 35	 1.790134e+02	 ChocolateParaMilk3.bmp	 WerthersOriginal.bmp	 44	 46	 1	 b	 2	 1	 1082.81	 0.09	 0.07	 1.805971e+02	 
MRI_snacks_135	 1	 1	 03	 1	 36	 1.820135e+02	 ChocolateParaMilk3.bmp	 CrunchBisquitBrown3.bmp	 44	 49	 1	 b	 2	 1	 1246.75	 0.09	 0.04	 1.837637e+02	 
MRI_snacks_135	 1	 1	 03	 1	 37	 1.850136e+02	 ClickXLbrown4.bmp	 ClickBalls5.bmp	 10	 9	 1	 y	 1	 0	 847.72	 4.84	 4.93	 1.863637e+02	 
MRI_snacks_135	 1	 1	 03	 1	 38	 1.880135e+02	 KinderBuenoBrown3.bmp	 ClickXLbrown4.bmp	 16	 10	 0	 b	 1	 0	 1191.72	 2.78	 4.84	 1.897066e+02	 
