subjectID	scanner	order	block	run	trial	onsettime	ImageLeft	ImageRight	bidIndexLeft	bidIndexRight	IsleftGo	Response	PairType	Outcome	RT	bidLeft	bidRight	ixationTime	
MRI_snacks_113	 1	 1	 04	 2	 1	 2.014017e+00	 DoritosNatural.bmp	 ChocolateParaMarir2.bmp	 51	 52	 0	 b	 2	 0	 1276.17	 1.62	 0.60	 3.797880e+00	 
MRI_snacks_113	 1	 1	 04	 2	 2	 9.015184e+00	 DoritosSourSpicy.bmp	 DoritosNatural.bmp	 53	 51	 1	 y	 2	 0	 954.97	 0.47	 1.62	 1.047333e+01	 
MRI_snacks_113	 1	 1	 04	 2	 3	 2.201754e+01	 Tapuchips.bmp	 BabyDoll.bmp	 43	 47	 0	 b	 2	 0	 912.61	 2.64	 1.71	 2.343450e+01	 
MRI_snacks_113	 1	 1	 04	 2	 4	 2.602318e+01	 Smarties.bmp	 CrunchBisquitBrown3.bmp	 11	 7	 0	 y	 1	 1	 956.97	 7.11	 9.11	 2.747340e+01	 
MRI_snacks_113	 1	 1	 04	 2	 5	 3.101908e+01	 SkittlesFruits2.bmp	 Loacker.bmp	 55	 5	 0	 y	 4	 1	 879.08	 0.13	 9.16	 3.239028e+01	 
MRI_snacks_113	 1	 1	 04	 2	 6	 3.402335e+01	 BisliOnion.bmp	 Mentos.bmp	 44	 48	 1	 b	 2	 1	 917.80	 2.62	 1.69	 3.544009e+01	 
MRI_snacks_113	 1	 1	 04	 2	 7	 3.902045e+01	 Taami.bmp	 ChocolateParaMarir2.bmp	 54	 52	 0	 y	 2	 1	 810.71	 0.13	 0.60	 4.032365e+01	 
MRI_snacks_113	 1	 1	 04	 2	 8	 4.302117e+01	 Tapuchips.bmp	 DoritosGrill.bmp	 43	 50	 0	 b	 2	 0	 1205.99	 2.64	 1.64	 4.472371e+01	 
MRI_snacks_113	 1	 1	 04	 2	 9	 5.202274e+01	 Shugi.bmp	 GumiWine2.bmp	 46	 45	 0	 b	 2	 0	 1236.40	 1.78	 2.62	 5.375714e+01	 
MRI_snacks_113	 1	 1	 04	 2	 10	 5.700674e+01	 BisliPizza3.bmp	 Popco.bmp	 10	 17	 1	 b	 1	 1	 923.42	 7.13	 6.84	 5.844063e+01	 
MRI_snacks_113	 1	 1	 04	 2	 11	 6.100766e+01	 Mentos.bmp	 DoritosGrill.bmp	 48	 50	 0	 y	 2	 1	 914.50	 1.69	 1.64	 6.242485e+01	 
MRI_snacks_113	 1	 1	 04	 2	 12	 6.800893e+01	 BisliOnion.bmp	 Taami.bmp	 44	 54	 1	 b	 2	 1	 928.22	 2.62	 0.13	 6.944273e+01	 
MRI_snacks_113	 1	 1	 04	 2	 13	 7.200953e+01	 Bounty.bmp	 CrunchBisquitBrown3.bmp	 9	 7	 0	 y	 1	 1	 1283.63	 8.00	 9.11	 7.379350e+01	 
MRI_snacks_113	 1	 1	 04	 2	 14	 7.801061e+01	 CrunchBisquitBrown3.bmp	 ClickBisquit2.bmp	 7	 8	 1	 b	 1	 1	 955.54	 9.11	 8.16	 7.947779e+01	 
MRI_snacks_113	 1	 1	 04	 2	 15	 8.301148e+01	 ChocolateParaMilk3.bmp	 Popco.bmp	 12	 17	 1	 b	 1	 1	 981.68	 7.00	 6.84	 8.449530e+01	 
MRI_snacks_113	 1	 1	 04	 2	 16	 8.701217e+01	 ClickXLwhite4.bmp	 Popco.bmp	 13	 17	 1	 b	 1	 1	 995.01	 6.98	 6.84	 8.851272e+01	 
MRI_snacks_113	 1	 1	 04	 2	 17	 9.002415e+01	 Bounty.bmp	 BisliPizza3.bmp	 9	 10	 0	 y	 1	 1	 1324.01	 8.00	 7.13	 9.184648e+01	 
MRI_snacks_113	 1	 1	 04	 2	 18	 9.301318e+01	 Taami.bmp	 BabyDoll.bmp	 54	 47	 0	 y	 2	 1	 1187.97	 0.13	 1.71	 9.470779e+01	 
MRI_snacks_113	 1	 1	 04	 2	 19	 9.701391e+01	 HispusimShatiah.bmp	 BisliPizza3.bmp	 16	 10	 0	 y	 1	 1	 944.25	 6.89	 7.13	 9.846437e+01	 
MRI_snacks_113	 1	 1	 04	 2	 20	 1.100162e+02	 DoritosSourSpicy.bmp	 Tapuchips.bmp	 53	 43	 1	 b	 2	 1	 1043.95	 0.47	 2.64	 1.115580e+02	 
MRI_snacks_113	 1	 1	 04	 2	 21	 1.140169e+02	 HispusimShatiah.bmp	 ChocolateParaCookies5.bmp	 16	 15	 0	 y	 1	 1	 911.29	 6.89	 6.96	 1.154247e+02	 
MRI_snacks_113	 1	 1	 04	 2	 22	 1.170174e+02	 Halva2.bmp	 BabyDoll.bmp	 49	 47	 0	 y	 2	 1	 1116.70	 1.67	 1.71	 1.186346e+02	 
MRI_snacks_113	 1	 1	 04	 2	 23	 1.220183e+02	 Shugi.bmp	 DoritosSourSpicy.bmp	 46	 53	 0	 b	 2	 0	 856.88	 1.78	 0.47	 1.233746e+02	 
MRI_snacks_113	 1	 1	 04	 2	 24	 1.250188e+02	 ChocolateParaMilk3.bmp	 HispusimShatiah.bmp	 12	 16	 1	 b	 1	 1	 805.36	 7.00	 6.89	 1.263247e+02	 
MRI_snacks_113	 1	 1	 04	 2	 25	 1.290195e+02	 DoritosGrill.bmp	 DoritosNatural.bmp	 50	 51	 1	 b	 2	 1	 812.65	 1.64	 1.62	 1.303249e+02	 
MRI_snacks_113	 1	 1	 04	 2	 26	 1.350205e+02	 Mentos.bmp	 GumiWine2.bmp	 48	 45	 0	 y	 2	 1	 725.62	 1.69	 2.62	 1.362416e+02	 
MRI_snacks_113	 1	 1	 04	 2	 27	 1.380211e+02	 BisliOnion.bmp	 DoritosNatural.bmp	 44	 51	 1	 b	 2	 1	 1050.07	 2.62	 1.62	 1.395714e+02	 
MRI_snacks_113	 1	 1	 04	 2	 28	 1.420217e+02	 WerthersOriginal.bmp	 Smarties.bmp	 18	 11	 1	 b	 1	 1	 885.45	 6.80	 7.11	 1.434055e+02	 
MRI_snacks_113	 1	 1	 04	 2	 29	 1.470083e+02	 ChocolateParaCookies5.bmp	 Smarties.bmp	 15	 11	 1	 b	 1	 1	 827.89	 6.96	 7.11	 1.483418e+02	 
MRI_snacks_113	 1	 1	 04	 2	 30	 1.510083e+02	 HispusimShatiah.bmp	 WerthersOriginal.bmp	 16	 18	 0	 y	 1	 1	 868.84	 6.89	 6.80	 1.523905e+02	 
MRI_snacks_113	 1	 1	 04	 2	 31	 1.630088e+02	 GumiWine2.bmp	 Halva2.bmp	 45	 49	 1	 y	 2	 0	 918.34	 2.62	 1.67	 1.644258e+02	 
MRI_snacks_113	 1	 1	 04	 2	 32	 1.690097e+02	 Mentos.bmp	 BabyDoll.bmp	 48	 47	 0	 y	 2	 1	 1130.43	 1.69	 1.71	 1.706437e+02	 
MRI_snacks_113	 1	 1	 04	 2	 33	 1.720134e+02	 CrunchBisquitWhite2.bmp	 Twist.bmp	 6	 56	 1	 b	 4	 1	 1177.71	 9.16	 0.11	 1.736941e+02	 
MRI_snacks_113	 1	 1	 04	 2	 34	 1.760127e+02	 ClickXLwhite4.bmp	 ClickBisquit2.bmp	 13	 8	 1	 y	 1	 0	 1153.40	 6.98	 8.16	 1.776754e+02	 
MRI_snacks_113	 1	 1	 04	 2	 35	 1.790115e+02	 ChocolateParaMilk3.bmp	 ClickBisquit2.bmp	 12	 8	 1	 y	 1	 0	 1070.62	 7.00	 8.16	 1.805922e+02	 
MRI_snacks_113	 1	 1	 04	 2	 36	 1.820152e+02	 Cheetos.bmp	 WerthersOriginal.bmp	 14	 18	 0	 b	 1	 0	 1030.92	 6.96	 6.80	 1.835459e+02	 
MRI_snacks_113	 1	 1	 04	 2	 37	 1.850126e+02	 ClickXLwhite4.bmp	 Bounty.bmp	 13	 9	 1	 b	 1	 1	 851.58	 6.98	 8.00	 1.863630e+02	 
MRI_snacks_113	 1	 1	 04	 2	 38	 1.880146e+02	 ChocolateParaCookies5.bmp	 Cheetos.bmp	 15	 14	 1	 b	 1	 1	 764.57	 6.96	 6.96	 1.892801e+02	 
