subjectID	scanner	order	block	run	trial	onsettime	ImageLeft	ImageRight	bidIndexLeft	bidIndexRight	IsleftGo	Response	PairType	Outcome	RT	bidLeft	bidRight	ixationTime	
MRI_snacks_134	 1	 2	 04	 1	 1	 2.019764e+00	 BagaleShtuhim.bmp	 ClickBisquit2.bmp	 8	 15	 1	 y	 1	 0	 838.54	 5.96	 3.89	 3.358390e+00	 
MRI_snacks_134	 1	 2	 04	 1	 2	 6.019739e+00	 SkittlesSour4.bmp	 ClickBlackWhite3.bmp	 53	 46	 0	 y	 2	 1	 597.52	 0.64	 1.64	 7.119954e+00	 
MRI_snacks_134	 1	 2	 04	 1	 3	 1.301993e+01	 KifkefMaklot2.bmp	 Loacker.bmp	 49	 47	 1	 b	 2	 1	 750.35	 1.60	 1.64	 1.427009e+01	 
MRI_snacks_134	 1	 2	 04	 1	 4	 1.601995e+01	 GumiWine2.bmp	 SkittlesFruits2.bmp	 43	 52	 1	 b	 2	 1	 823.34	 1.67	 0.67	 1.734307e+01	 
MRI_snacks_134	 1	 2	 04	 1	 5	 2.102004e+01	 Mars.bmp	 Bounty.bmp	 18	 14	 0	 b	 1	 0	 735.22	 3.87	 4.38	 2.225351e+01	 
MRI_snacks_134	 1	 2	 04	 1	 6	 3.102022e+01	 Cheetos.bmp	 Bounty.bmp	 13	 14	 0	 y	 1	 1	 761.08	 4.80	 4.38	 3.227910e+01	 
MRI_snacks_134	 1	 2	 04	 1	 7	 3.402022e+01	 KinderJoy.bmp	 BisliBbq.bmp	 10	 11	 0	 b	 1	 0	 782.05	 4.91	 4.89	 3.530368e+01	 
MRI_snacks_134	 1	 2	 04	 1	 8	 3.702032e+01	 BambaNugat.bmp	 Popco.bmp	 7	 9	 0	 b	 1	 0	 701.94	 5.96	 5.91	 3.822038e+01	 
MRI_snacks_134	 1	 2	 04	 1	 9	 4.602038e+01	 ClickBisquit2.bmp	 Kitkat.bmp	 15	 17	 0	 y	 1	 1	 915.93	 3.89	 3.87	 4.743716e+01	 
MRI_snacks_134	 1	 2	 04	 1	 10	 4.902045e+01	 BambaNugat.bmp	 CrunchShokoVanil.bmp	 7	 16	 0	 b	 1	 0	 722.83	 5.96	 3.89	 5.023721e+01	 
MRI_snacks_134	 1	 2	 04	 1	 11	 5.902055e+01	 ChocolateParaMilk3.bmp	 SkittlesSour4.bmp	 54	 53	 1	 b	 2	 1	 1106.73	 0.64	 0.64	 6.062076e+01	 
MRI_snacks_134	 1	 2	 04	 1	 12	 6.402066e+01	 Tictac.bmp	 KifkefMaklot2.bmp	 45	 49	 0	 y	 2	 1	 763.61	 1.67	 1.60	 6.528486e+01	 
MRI_snacks_134	 1	 2	 04	 1	 13	 6.902077e+01	 ClickXLwhite4.bmp	 KinderBuenoWhite2.bmp	 51	 44	 1	 b	 2	 1	 1330.51	 0.67	 1.67	 7.085244e+01	 
MRI_snacks_134	 1	 2	 04	 1	 14	 7.702080e+01	 GumiWine2.bmp	 SkittlesSour4.bmp	 43	 53	 1	 b	 2	 1	 746.49	 1.67	 0.64	 7.825439e+01	 
MRI_snacks_134	 1	 2	 04	 1	 15	 8.402139e+01	 ChocolateParaMilk3.bmp	 Loacker.bmp	 54	 47	 1	 b	 2	 1	 798.88	 0.64	 1.64	 8.530478e+01	 
MRI_snacks_134	 1	 2	 04	 1	 16	 8.802204e+01	 Bounty.bmp	 BambaNugat.bmp	 14	 7	 1	 y	 1	 0	 670.23	 4.38	 5.96	 8.918903e+01	 
MRI_snacks_134	 1	 2	 04	 1	 17	 9.102251e+01	 ClickBlackWhite3.bmp	 Loacker.bmp	 46	 47	 1	 b	 2	 1	 814.76	 1.64	 1.64	 9.232291e+01	 
MRI_snacks_134	 1	 2	 04	 1	 18	 9.602115e+01	 Tictac.bmp	 CrunchBisquitWhite2.bmp	 45	 48	 0	 y	 2	 1	 737.16	 1.67	 1.64	 9.725710e+01	 
MRI_snacks_134	 1	 2	 04	 1	 19	 9.902118e+01	 Smarties.bmp	 CrunchBisquitWhite2.bmp	 50	 48	 0	 y	 2	 1	 611.13	 0.69	 1.64	 1.001243e+02	 
MRI_snacks_134	 1	 2	 04	 1	 20	 1.070213e+02	 BambaNugat.bmp	 Kitkat.bmp	 7	 17	 0	 b	 1	 0	 836.03	 5.96	 3.87	 1.083548e+02	 
MRI_snacks_134	 1	 2	 04	 1	 21	 1.130214e+02	 KashitSour.bmp	 Apropo.bmp	 56	 5	 0	 b	 4	 0	 859.87	 0.62	 5.96	 1.143768e+02	 
MRI_snacks_134	 1	 2	 04	 1	 22	 1.180214e+02	 ClickXLwhite4.bmp	 Loacker.bmp	 51	 47	 1	 b	 2	 1	 773.83	 0.67	 1.64	 1.192944e+02	 
MRI_snacks_134	 1	 2	 04	 1	 23	 1.230215e+02	 BagaleShtuhim.bmp	 KinderBuenoBrown3.bmp	 8	 12	 1	 y	 1	 0	 794.76	 5.96	 4.84	 1.243118e+02	 
MRI_snacks_134	 1	 2	 04	 1	 24	 1.260215e+02	 KashitSour.bmp	 Keifli.bmp	 56	 6	 0	 y	 4	 1	 1045.76	 0.62	 5.96	 1.275624e+02	 
MRI_snacks_134	 1	 2	 04	 1	 25	 1.400217e+02	 SkittlesFruits2.bmp	 ChocolateParaMilk3.bmp	 52	 54	 0	 y	 2	 1	 1010.56	 0.67	 0.64	 1.415315e+02	 
MRI_snacks_134	 1	 2	 04	 1	 26	 1.430217e+02	 CrunchBisquitWhite2.bmp	 Loacker.bmp	 48	 47	 1	 b	 2	 1	 912.55	 1.64	 1.64	 1.444320e+02	 
MRI_snacks_134	 1	 2	 04	 1	 27	 1.470218e+02	 BisliBbq.bmp	 ClickBisquit2.bmp	 11	 15	 1	 y	 1	 0	 813.51	 4.89	 3.89	 1.483327e+02	 
MRI_snacks_134	 1	 2	 04	 1	 28	 1.510218e+02	 KinderJoy.bmp	 Popco.bmp	 10	 9	 0	 b	 1	 0	 714.45	 4.91	 5.91	 1.522334e+02	 
MRI_snacks_134	 1	 2	 04	 1	 29	 1.540216e+02	 CrunchShokoVanil.bmp	 Cheetos.bmp	 16	 13	 1	 b	 1	 1	 870.63	 3.89	 4.80	 1.553887e+02	 
MRI_snacks_134	 1	 2	 04	 1	 30	 1.570219e+02	 Cheetos.bmp	 BisliBbq.bmp	 13	 11	 0	 y	 1	 1	 1100.37	 4.80	 4.89	 1.586222e+02	 
MRI_snacks_134	 1	 2	 04	 1	 31	 1.630184e+02	 CrunchBisquitWhite2.bmp	 KinderBuenoWhite2.bmp	 48	 44	 1	 b	 2	 1	 1249.84	 1.64	 1.67	 1.647722e+02	 
MRI_snacks_134	 1	 2	 04	 1	 32	 1.690221e+02	 BambaNugat.bmp	 BagaleShtuhim.bmp	 7	 8	 0	 b	 1	 0	 964.15	 5.96	 5.96	 1.704866e+02	 
MRI_snacks_134	 1	 2	 04	 1	 33	 1.720221e+02	 SkittlesSour4.bmp	 ClickXLwhite4.bmp	 53	 51	 0	 y	 2	 1	 1026.18	 0.64	 0.67	 1.735390e+02	 
MRI_snacks_134	 1	 2	 04	 1	 34	 1.750222e+02	 BisliBbq.bmp	 BambaNugat.bmp	 11	 7	 1	 y	 1	 0	 1006.11	 4.89	 5.96	 1.765223e+02	 
MRI_snacks_134	 1	 2	 04	 1	 35	 1.790222e+02	 GumiWine2.bmp	 KinderBuenoWhite2.bmp	 43	 44	 1	 b	 2	 1	 934.05	 1.67	 1.67	 1.804558e+02	 
MRI_snacks_134	 1	 2	 04	 1	 36	 1.820224e+02	 Bounty.bmp	 ClickBisquit2.bmp	 14	 15	 1	 y	 1	 0	 841.87	 4.38	 3.89	 1.833558e+02	 
MRI_snacks_134	 1	 2	 04	 1	 37	 1.850224e+02	 CrunchBisquitWhite2.bmp	 SkittlesFruits2.bmp	 48	 52	 1	 b	 2	 1	 716.96	 1.64	 0.67	 1.862393e+02	 
MRI_snacks_134	 1	 2	 04	 1	 38	 1.880228e+02	 KinderJoy.bmp	 BagaleShtuhim.bmp	 10	 8	 0	 b	 1	 0	 807.44	 4.91	 5.96	 1.893231e+02	 
