subjectID	scanner	order	block	run	trial	onsettime	ImageLeft	ImageRight	bidIndexLeft	bidIndexRight	IsleftGo	Response	PairType	Outcome	RT	bidLeft	bidRight	ixationTime	
MRI_snacks_111	 1	 1	 03	 1	 1	 2.018684e+00	 Smarties.bmp	 Shugi.bmp	 50	 54	 1	 b	 2	 1	 893.47	 2.33	 2.16	 3.417200e+00	 
MRI_snacks_111	 1	 1	 03	 1	 2	 6.017698e+00	 Bamba.bmp	 DoritosGrill.bmp	 7	 16	 1	 b	 1	 1	 1185.47	 6.47	 5.56	 7.701356e+00	 
MRI_snacks_111	 1	 1	 03	 1	 3	 9.018014e+00	 BisliBbq.bmp	 Apropo.bmp	 11	 10	 0	 b	 1	 0	 1078.13	 5.96	 6.04	 1.060187e+01	 
MRI_snacks_111	 1	 1	 03	 1	 4	 1.401881e+01	 BambaSweet.bmp	 Smarties.bmp	 43	 50	 0	 y	 2	 1	 1152.35	 2.71	 2.33	 1.566922e+01	 
MRI_snacks_111	 1	 1	 03	 1	 5	 1.701936e+01	 Taami.bmp	 Shugi.bmp	 52	 54	 1	 b	 2	 1	 1149.80	 2.22	 2.16	 1.866977e+01	 
MRI_snacks_111	 1	 1	 03	 1	 6	 2.001978e+01	 BisliBbq.bmp	 Bamba.bmp	 11	 7	 0	 b	 1	 0	 913.37	 5.96	 6.47	 2.143683e+01	 
MRI_snacks_111	 1	 1	 03	 1	 7	 3.402239e+01	 SkittlesSour4.bmp	 Mekupelet.bmp	 15	 17	 1	 b	 1	 1	 1036.76	 5.87	 5.51	 3.555615e+01	 
MRI_snacks_111	 1	 1	 03	 1	 8	 3.802304e+01	 BisliOnion.bmp	 DoritosGrill.bmp	 18	 16	 1	 b	 1	 1	 1010.11	 5.49	 5.56	 3.953213e+01	 
MRI_snacks_111	 1	 1	 03	 1	 9	 4.202378e+01	 Tapuchips.bmp	 Egozi.bmp	 51	 47	 0	 b	 2	 0	 1086.37	 2.27	 2.51	 4.360762e+01	 
MRI_snacks_111	 1	 1	 03	 1	 10	 4.502422e+01	 Smarties.bmp	 CrunchShokoVanil.bmp	 50	 49	 1	 b	 2	 1	 977.94	 2.33	 2.36	 4.649900e+01	 
MRI_snacks_111	 1	 1	 03	 1	 11	 4.802484e+01	 HappyHippo.bmp	 BisliGrill.bmp	 12	 8	 1	 y	 1	 0	 745.31	 5.93	 6.40	 4.926549e+01	 
MRI_snacks_111	 1	 1	 03	 1	 12	 5.302572e+01	 BisliPizza3.bmp	 BisliOnion.bmp	 14	 18	 0	 y	 1	 1	 882.42	 5.89	 5.49	 5.440947e+01	 
MRI_snacks_111	 1	 1	 03	 1	 13	 5.602620e+01	 BisliGrill.bmp	 BisliOnion.bmp	 8	 18	 0	 x	 1	 999	 999000.00	 6.40	 5.49	 5.802670e+01	 
MRI_snacks_111	 1	 1	 03	 1	 14	 6.602792e+01	 Smarties.bmp	 Tortit.bmp	 50	 48	 1	 b	 2	 1	 826.24	 2.33	 2.36	 6.734923e+01	 
MRI_snacks_111	 1	 1	 03	 1	 15	 7.201572e+01	 BambaNugat.bmp	 Tortit.bmp	 44	 48	 1	 y	 2	 0	 919.42	 2.71	 2.36	 7.344604e+01	 
MRI_snacks_111	 1	 1	 03	 1	 16	 7.501576e+01	 Twist.bmp	 KinderBuenoWhite2.bmp	 55	 5	 0	 y	 4	 1	 749.39	 2.00	 6.56	 7.626602e+01	 
MRI_snacks_111	 1	 1	 03	 1	 17	 7.901581e+01	 ClickXLwhite4.bmp	 BambaSweet.bmp	 45	 43	 1	 b	 2	 1	 871.34	 2.71	 2.71	 8.039728e+01	 
MRI_snacks_111	 1	 1	 03	 1	 18	 8.401589e+01	 BisliOnion.bmp	 Kitkat.bmp	 18	 9	 1	 b	 1	 1	 891.26	 5.49	 6.27	 8.541599e+01	 
MRI_snacks_111	 1	 1	 03	 1	 19	 9.101599e+01	 Kitkat.bmp	 SkittlesSour4.bmp	 9	 15	 0	 y	 1	 1	 842.16	 6.27	 5.87	 9.236625e+01	 
MRI_snacks_111	 1	 1	 03	 1	 20	 9.601652e+01	 Apropo.bmp	 DoritosGrill.bmp	 10	 16	 1	 b	 1	 1	 789.62	 6.04	 5.56	 9.731690e+01	 
MRI_snacks_111	 1	 1	 03	 1	 21	 9.901700e+01	 Taami.bmp	 BambaSweet.bmp	 52	 43	 1	 b	 2	 1	 900.17	 2.22	 2.71	 1.004174e+02	 
MRI_snacks_111	 1	 1	 03	 1	 22	 1.050180e+02	 ClickXLwhite4.bmp	 Tortit.bmp	 45	 48	 1	 b	 2	 1	 799.12	 2.71	 2.36	 1.063185e+02	 
MRI_snacks_111	 1	 1	 03	 1	 23	 1.090188e+02	 BisliGrill.bmp	 SkittlesSour4.bmp	 8	 15	 0	 b	 1	 0	 767.39	 6.40	 5.87	 1.102858e+02	 
MRI_snacks_111	 1	 1	 03	 1	 24	 1.210208e+02	 Shugi.bmp	 ClickXLwhite4.bmp	 54	 45	 0	 y	 2	 1	 886.32	 2.16	 2.71	 1.224045e+02	 
MRI_snacks_111	 1	 1	 03	 1	 25	 1.240213e+02	 Bounty.bmp	 CrunchShokoVanil.bmp	 53	 49	 1	 b	 2	 1	 865.82	 2.20	 2.36	 1.253884e+02	 
MRI_snacks_111	 1	 1	 03	 1	 26	 1.270218e+02	 Tapuchips.bmp	 BambaNugat.bmp	 51	 44	 0	 b	 2	 0	 1098.38	 2.27	 2.71	 1.286224e+02	 
MRI_snacks_111	 1	 1	 03	 1	 27	 1.310225e+02	 CrunchShokoVanil.bmp	 Egozi.bmp	 49	 47	 0	 y	 2	 1	 1206.64	 2.36	 2.51	 1.327333e+02	 
MRI_snacks_111	 1	 1	 03	 1	 28	 1.370236e+02	 Loacker.bmp	 Twist.bmp	 6	 55	 1	 b	 4	 1	 973.56	 6.51	 2.00	 1.385001e+02	 
MRI_snacks_111	 1	 1	 03	 1	 29	 1.400241e+02	 BisliBbq.bmp	 SkittlesSour4.bmp	 11	 15	 0	 b	 1	 0	 803.08	 5.96	 5.87	 1.413244e+02	 
MRI_snacks_111	 1	 1	 03	 1	 30	 1.490257e+02	 Kitkat.bmp	 HappyHippo.bmp	 9	 12	 0	 y	 1	 1	 926.46	 6.27	 5.93	 1.504502e+02	 
MRI_snacks_111	 1	 1	 03	 1	 31	 1.530263e+02	 CrunchShokoVanil.bmp	 Taami.bmp	 49	 52	 0	 y	 2	 1	 1026.85	 2.36	 2.22	 1.545504e+02	 
MRI_snacks_111	 1	 1	 03	 1	 32	 1.570270e+02	 BisliPizza3.bmp	 Apropo.bmp	 14	 10	 0	 b	 1	 0	 1162.16	 5.89	 6.04	 1.586837e+02	 
MRI_snacks_111	 1	 1	 03	 1	 33	 1.600276e+02	 Shugi.bmp	 Bounty.bmp	 54	 53	 0	 b	 2	 0	 979.59	 2.16	 2.20	 1.615004e+02	 
MRI_snacks_111	 1	 1	 03	 1	 34	 1.630281e+02	 Egozi.bmp	 BambaSweet.bmp	 47	 43	 1	 b	 2	 1	 939.08	 2.51	 2.71	 1.644671e+02	 
MRI_snacks_111	 1	 1	 03	 1	 35	 1.730170e+02	 DoritosGrill.bmp	 WerthersOriginal.bmp	 16	 13	 0	 y	 1	 1	 890.11	 5.56	 5.91	 1.744173e+02	 
MRI_snacks_111	 1	 1	 03	 1	 36	 1.770171e+02	 Taami.bmp	 Hit.bmp	 52	 46	 1	 y	 2	 0	 1005.07	 2.22	 2.69	 1.785310e+02	 
MRI_snacks_111	 1	 1	 03	 1	 37	 1.850172e+02	 Apropo.bmp	 BisliGrill.bmp	 10	 8	 1	 y	 1	 0	 1046.99	 6.04	 6.40	 1.865674e+02	 
MRI_snacks_111	 1	 1	 03	 1	 38	 1.880181e+02	 Kitkat.bmp	 Bamba.bmp	 9	 7	 0	 y	 1	 1	 736.05	 6.27	 6.47	 1.892507e+02	 
