subjectID	scanner	order	block	run	trial	onsettime	ImageLeft	ImageRight	bidIndexLeft	bidIndexRight	IsleftGo	Response	PairType	Outcome	RT	bidLeft	bidRight	ixationTime	
MRI_snacks_127	 1	 1	 03	 1	 1	 2.029053e+00	 ClickXLbrown4.bmp	 ChocolateParaMilk3.bmp	 18	 14	 1	 b	 1	 1	 1302.17	 5.42	 5.91	 3.830541e+00	 
MRI_snacks_127	 1	 1	 03	 1	 2	 9.030250e+00	 GumiWine2.bmp	 Shugi.bmp	 51	 53	 0	 y	 2	 1	 1280.98	 2.73	 2.71	 1.081403e+01	 
MRI_snacks_127	 1	 1	 03	 1	 3	 2.203253e+01	 KinderBuenoWhite2.bmp	 KinderBuenoBrown3.bmp	 15	 9	 1	 y	 1	 0	 1393.70	 5.91	 6.22	 2.392208e+01	 
MRI_snacks_127	 1	 1	 03	 1	 4	 2.603325e+01	 Hit.bmp	 ChocolateParaMilk3.bmp	 13	 14	 1	 y	 1	 0	 1187.98	 5.91	 5.91	 2.771706e+01	 
MRI_snacks_127	 1	 1	 03	 1	 5	 3.102202e+01	 BisliOnion.bmp	 ClickXLbrown4.bmp	 17	 18	 0	 y	 1	 1	 956.18	 5.91	 5.42	 3.248877e+01	 
MRI_snacks_127	 1	 1	 03	 1	 6	 3.402206e+01	 Tortit.bmp	 KinderJoy.bmp	 56	 5	 0	 y	 4	 1	 1055.18	 2.20	 6.98	 3.558511e+01	 
MRI_snacks_127	 1	 1	 03	 1	 7	 3.902209e+01	 KinderBuenoWhite2.bmp	 CrunchBisquitBrown3.bmp	 15	 8	 1	 y	 1	 0	 1358.13	 5.91	 6.96	 4.088895e+01	 
MRI_snacks_127	 1	 1	 03	 1	 8	 4.302225e+01	 DoritosGrill.bmp	 Mekupelet.bmp	 47	 43	 1	 y	 2	 0	 1023.96	 3.78	 3.80	 4.455564e+01	 
MRI_snacks_127	 1	 1	 03	 1	 9	 5.202226e+01	 KinderBuenoBrown3.bmp	 CrunchBisquitWhite2.bmp	 9	 12	 0	 b	 1	 0	 1223.95	 6.22	 5.93	 5.375579e+01	 
MRI_snacks_127	 1	 1	 03	 1	 10	 5.702244e+01	 Mekupelet.bmp	 ClickBlackWhite3.bmp	 43	 45	 0	 y	 2	 1	 1155.78	 3.80	 3.78	 5.868920e+01	 
MRI_snacks_127	 1	 1	 03	 1	 11	 6.102275e+01	 HispusimShatiah.bmp	 ChocolateParaMilk3.bmp	 10	 14	 1	 b	 1	 1	 1163.48	 5.96	 5.91	 6.268981e+01	 
MRI_snacks_127	 1	 1	 03	 1	 12	 6.802393e+01	 ChocolateParaCookies5.bmp	 Twist.bmp	 6	 55	 1	 b	 4	 1	 1026.29	 6.98	 2.38	 6.955762e+01	 
MRI_snacks_127	 1	 1	 03	 1	 13	 7.202463e+01	 Egozi.bmp	 Halva2.bmp	 44	 46	 1	 b	 2	 1	 1188.61	 3.80	 3.78	 7.370838e+01	 
MRI_snacks_127	 1	 1	 03	 1	 14	 7.802568e+01	 CrunchBisquitWhite2.bmp	 ClickXLwhite4.bmp	 12	 16	 1	 b	 1	 1	 1397.55	 5.93	 5.91	 7.992612e+01	 
MRI_snacks_127	 1	 1	 03	 1	 15	 8.302658e+01	 ClickBlackWhite3.bmp	 GumiWine2.bmp	 45	 51	 1	 b	 2	 1	 1031.65	 3.78	 2.73	 8.456024e+01	 
MRI_snacks_127	 1	 1	 03	 1	 16	 8.702735e+01	 BisliOnion.bmp	 HispusimShatiah.bmp	 17	 10	 0	 y	 1	 1	 1043.86	 5.91	 5.96	 8.857297e+01	 
MRI_snacks_127	 1	 1	 03	 1	 17	 9.002776e+01	 CrunchShokoVanil.bmp	 Mentos.bmp	 52	 49	 1	 b	 2	 1	 1275.46	 2.71	 2.73	 9.180631e+01	 
MRI_snacks_127	 1	 1	 03	 1	 18	 9.302837e+01	 GumiSnakes3.bmp	 CrunchBisquitBrown3.bmp	 7	 8	 1	 y	 1	 0	 1130.85	 6.96	 6.96	 9.466217e+01	 
MRI_snacks_127	 1	 1	 03	 1	 19	 9.702899e+01	 Cheetos.bmp	 DoritosGrill.bmp	 48	 47	 0	 b	 2	 0	 1227.22	 3.76	 3.78	 9.875639e+01	 
MRI_snacks_127	 1	 1	 03	 1	 20	 1.100313e+02	 Mentos.bmp	 Shugi.bmp	 49	 53	 0	 y	 2	 1	 1133.89	 2.73	 2.71	 1.116651e+02	 
MRI_snacks_127	 1	 1	 03	 1	 21	 1.140320e+02	 Hit.bmp	 ClickXLwhite4.bmp	 13	 16	 1	 y	 1	 0	 918.27	 5.91	 5.91	 1.154491e+02	 
MRI_snacks_127	 1	 1	 03	 1	 22	 1.170325e+02	 Cheetos.bmp	 Egozi.bmp	 48	 44	 0	 y	 2	 1	 807.73	 3.76	 3.80	 1.183400e+02	 
MRI_snacks_127	 1	 1	 03	 1	 23	 1.220334e+02	 Smarties.bmp	 Shugi.bmp	 54	 53	 0	 y	 2	 1	 1271.87	 2.71	 2.71	 1.238005e+02	 
MRI_snacks_127	 1	 1	 03	 1	 24	 1.250233e+02	 Dubonim.bmp	 Smarties.bmp	 50	 54	 1	 y	 2	 0	 1305.93	 2.73	 2.71	 1.268343e+02	 
MRI_snacks_127	 1	 1	 03	 1	 25	 1.290234e+02	 KinderBuenoWhite2.bmp	 ChocolateParaMilk3.bmp	 15	 14	 1	 b	 1	 1	 1358.86	 5.91	 5.91	 1.308902e+02	 
MRI_snacks_127	 1	 1	 03	 1	 26	 1.350234e+02	 Smarties.bmp	 CrunchShokoVanil.bmp	 54	 52	 0	 x	 2	 999	 999000.00	 2.71	 2.71	 1.370236e+02	 
MRI_snacks_127	 1	 1	 03	 1	 27	 1.380235e+02	 CrunchBisquitWhite2.bmp	 Popco.bmp	 12	 11	 1	 b	 1	 1	 843.73	 5.93	 5.93	 1.393737e+02	 
MRI_snacks_127	 1	 1	 03	 1	 28	 1.420235e+02	 ChocolateParaMilk3.bmp	 CrunchBisquitWhite2.bmp	 14	 12	 0	 y	 1	 1	 966.69	 5.91	 5.93	 1.434904e+02	 
MRI_snacks_127	 1	 1	 03	 1	 29	 1.470236e+02	 GumiWine2.bmp	 Dubonim.bmp	 51	 50	 0	 b	 2	 0	 1200.63	 2.73	 2.73	 1.487238e+02	 
MRI_snacks_127	 1	 1	 03	 1	 30	 1.510237e+02	 KinderBuenoBrown3.bmp	 Hit.bmp	 9	 13	 0	 b	 1	 0	 853.53	 6.22	 5.91	 1.523738e+02	 
MRI_snacks_127	 1	 1	 03	 1	 31	 1.630239e+02	 DoritosGrill.bmp	 Halva2.bmp	 47	 46	 1	 b	 2	 1	 972.34	 3.78	 3.78	 1.644909e+02	 
MRI_snacks_127	 1	 1	 03	 1	 32	 1.690250e+02	 ClickXLwhite4.bmp	 GumiSnakes3.bmp	 16	 7	 0	 b	 1	 0	 1007.28	 5.91	 6.96	 1.705408e+02	 
MRI_snacks_127	 1	 1	 03	 1	 33	 1.720255e+02	 ClickXLwhite4.bmp	 ClickXLbrown4.bmp	 16	 18	 0	 y	 1	 1	 1119.77	 5.91	 5.42	 1.736425e+02	 
MRI_snacks_127	 1	 1	 03	 1	 34	 1.760261e+02	 Halva2.bmp	 Dubonim.bmp	 46	 50	 0	 y	 2	 1	 1121.13	 3.78	 2.73	 1.776432e+02	 
MRI_snacks_127	 1	 1	 03	 1	 35	 1.790267e+02	 KinderBuenoWhite2.bmp	 ClickXLwhite4.bmp	 15	 16	 1	 y	 1	 0	 989.55	 5.91	 5.91	 1.805102e+02	 
MRI_snacks_127	 1	 1	 03	 1	 36	 1.820271e+02	 DoritosGrill.bmp	 Smarties.bmp	 47	 54	 1	 y	 2	 0	 1031.09	 3.78	 2.71	 1.835609e+02	 
MRI_snacks_127	 1	 1	 03	 1	 37	 1.850277e+02	 Mentos.bmp	 DoritosGrill.bmp	 49	 47	 0	 y	 2	 1	 1149.50	 2.73	 3.78	 1.866782e+02	 
MRI_snacks_127	 1	 1	 03	 1	 38	 1.880282e+02	 Mekupelet.bmp	 CrunchShokoVanil.bmp	 43	 52	 0	 b	 2	 0	 930.03	 3.80	 2.71	 1.894619e+02	 
